time,ax,ay,az,gx,gy,gz,accmagnitude,gccmagnitude
0,9.006595863002,-249.82742822394007,-0.12356285622406879,92.85846606139174,11.152365995711158,-31.680739650117648,249.98911046743837,98.69267037033354
1,9.381684817487084,-250.02961770870183,-0.3863892302526989,93.29487681026329,10.979684267355212,-31.410993631669694,250.21016088588678,99.00926598008985
2,9.760139442768828,-250.23366826731382,-0.6423559482579925,93.70533316561495,10.81695633378093,-31.130463632600527,250.43328271396342,99.29977815007409
3,10.137840098466135,-250.43679775276786,-0.8870104251718991,94.08744025746127,10.666857183674576,-30.838349375225583,250.65547356694128,99.56216307959117
4,10.51069862822428,-250.63643361198996,-1.1161381941822701,94.43908226015593,10.531609444265534,-30.53373523051422,250.87394205606896,99.79456713393449
5,10.874738502845702,-250.83028940192042,-1.3258760230015856,94.75846405847243,10.412898926399501,-30.215622332523953,251.08618871656867,99.99536304479022
6,11.226170568770133,-251.016428417349,-1.5128110480214572,95.04416395683405,10.311810869442017,-29.88297122100444,251.29007376305609,100.16320141796083
7,11.561463006303736,-251.19331211150057,-1.6740626994895582,95.29519735373069,10.228790275924007,-29.534754185898795,251.48386927360073,100.2970776547061
8,11.877404488367429,-251.35983175209623,-1.8073454775500397,95.51109003579981,10.163628777553738,-29.1700157439089,251.66629419610175,100.39641288387772
9,12.171159760545562,-251.51532244354732,-1.9110117242995621,95.69195848231152,10.115479381858211,-28.787939111383718,251.8365312775647,100.46114603821424
10,12.440316972431974,-251.65955929669266,-1.9840743851665783,95.83859336903308,10.082899188216397,-28.387916190332813,251.99422567632067,100.4918328543244
11,12.682926143528027,-251.79273624153413,-2.0262104190059396,95.95254139682059,10.063918832816837,-27.969618428817295,252.139465734251,100.48974640276823
12,12.897528176419698,-251.91542879188304,-2.0377460061998116,96.03617974759487,10.05613617069622,-27.53306591387137,252.27274719942446,100.45697285856178
13,13.083173877702789,-252.0285428669975,-2.0196250610640814,96.09277699574946,10.056830621920092,-27.078692163813688,252.39492298624535,100.39649570078166
14,13.23943258405187,-252.133252372799,-1.973362905067609,96.12653423917193,10.063093724862139,-26.607402212415746,252.50714116438266,100.31226141876137
15,13.366390232647127,-252.23092856570327,-1.9009873431002962,96.14260055380447,10.071970751875563,-26.12062158388751,252.6107742017396,100.20922005839275
16,13.46463698687684,-252.32306432377206,-1.8049696689145096,96.14705756976744,10.08060774732744,-25.620333589922726,252.7073426026138,100.09333450406143
17,13.535244738979177,-252.41119640842538,-1.6881481657981807,96.14686896943016,10.086398043331624,-25.109102147688557,252.79843604914797,99.97155324586447
18,13.579734943989033,-252.4968286405116,-1.553646483760226,96.14979197664522,10.087122201317323,-24.59007722258588,252.88563499703636,99.85174254264945
19,13.600037376988475,-252.58135866916624,-1.40478898802824,96.16424935673,10.081075437392457,-24.06698019613742,252.97043543315664,99.74257532059148
20,13.598440645702077,-252.6660107238771,-1.2450149046368284,96.19916194878638,10.067176938379905,-23.544067000925555,253.05417922262717,99.65337573692338
21,13.577535615211628,-252.7517763933737,-1.077792921592135,96.26374322610211,10.045056073180296,-23.026067728512242,253.13799213897883,99.5939200089337
22,13.540153180848002,-252.83936504091625,-0.9065378819176733,96.36725887824284,10.015111350993,-22.51810251419757,253.2227312485283,99.57419588679167
23,13.489297960683553,-252.92916501982003,-0.7345313317125275,96.51875607562849,9.97853906445162,-22.02557469140281,253.3089428789055,99.60412513762606
24,13.428079505129006,-253.0212165354809,-0.5648479221308652,96.72676904148932,9.937329836024356,-21.554043343909047,253.39683208328523,99.69325568891985
25,13.359642640791913,-253.11519687080298,-0.4002898910532567,96.99900981475432,9.89423266723327,-21.109078372891943,253.48624438138586,99.85043261653675
26,13.28709861014553,-253.21041868838245,-0.24333186367097515,97.34205545089695,9.85268746903622,-20.696102011703662,253.5766605559515,100.08345975677837
27,13.2134586867925,-253.30584211336907,-0.09607781878762926,97.76104503582512,9.816728343452322,-20.320221386757254,253.66720527760282,100.39876604135453
28,13.141571920000592,-253.4001011259345,0.03976872258472813,98.25940138129465,9.790861017596406,-19.986057268022083,253.756670163098,100.80109231299876
29,13.07406863126707,-253.49154430541472,0.16292114141913394,98.83859274760557,9.779918746243249,-19.69757457641923,253.84355139553554,101.29321500295458
30,13.013311245631272,-253.57828911025175,0.27251337210742177,99.49794910501312,9.788901677929267,-19.457920458778645,253.92610118486084,101.87572233922339
31,12.961353894630692,-253.65828773866642,0.3680917690193954,100.23454517275931,9.82280511277863,-19.269275710709056,254.0023912052862,102.54685656313009
32,12.919911881404348,-253.7294014394258,0.4495964065942607,101.04315886867091,9.886442253485631,-19.132724984714017,254.07038495446866,103.30243205338067
33,12.89034157937444,-253.78947924920092,0.5173330824810187,101.91630919235217,9.984266996779562,-19.048150630681974,254.1280150599767,104.13583462913445
34,12.873630769809841,-253.83643674839664,0.5719372782114023,102.84437241925646,10.120202138543595,-19.01415427819843,254.17326114410042,105.0381021158047
35,12.870398899931692,-253.86833058005118,0.6143313794843435,103.81577029267261,10.297478184400456,-19.028009433869617,254.20422398222337,105.9980810118884
36,12.880906293559184,-253.88342509472753,0.6456766088564123,104.81721912975223,10.518487796214497,-19.085647452570925,254.2191922830606,107.0026492528469
37,12.905071035455197,-253.88024850321415,0.6673213030510343,105.8340248712769,10.784660692033718,-19.181678296367338,254.21669941933092,108.03699108646865
38,12.942492156234165,-253.85763720337664,0.6807472961642334,106.85040657456544,11.096363448619886,-19.309446566470253,254.19556871367408,109.08490741621878
39,12.992477839915617,-253.81476822065602,0.6875162253016901,107.84983007854494,11.452828068053803,-19.461122393902933,254.15494715874888,110.12914403008405
40,13.05407754403424,-253.75118067093035,0.6892175548365318,108.8153347857321,11.852112367442444,-19.627825925810157,254.09432842458554,111.15172114004808
41,13.126117082558405,-253.6667876911039,0.6874200098874086,109.72983963902547,12.291094294884093,-19.799783416468944,254.01356654817482,112.1342505597897
42,13.207235852175275,-253.561880452932,0.6836278997703539,110.57641896889675,12.765501244506266,-19.966512376806534,253.91288187504182,113.05823121230885
43,13.295925442809361,-253.43712581478343,0.6792434873261393,111.3385441634743,13.269974394272786,-20.117032812610656,253.79286076362348,113.90531870732131
44,13.390568809216651,-253.29355895260016,0.6755361677123152,112.00029218658364,13.798167055238046,-20.24010119009506,253.65445034600273,114.6575695754215
45,13.489479001521307,-253.13257198679074,0.6736188589619301,112.54652611438648,14.342875029635298,-20.324463335693782,253.49894930472198,115.2976646700959
46,13.590936265662009,-252.95589926884296,0.6744317198227087,112.96305562986998,14.89619603969985,-20.35912196878597,253.32799526291322,115.80911880077635
47,13.693222277211122,-252.76559967333426,0.6787330542169887,113.23678661101083,15.449714398486266,-20.33361393618757,253.14354906453912,116.17648464025999
48,13.794650438242543,-252.56403590289068,0.6870970049972297,113.35586859578494,15.994706267488183,-20.23829143040423,252.94787589209722,116.3855583790159
49,13.893591501102211,-252.35385038392297,0.6999174187010957,113.30984721333358,16.522360161543997,-20.064600567858125,252.7435227568869,116.42359269884837
50,13.988494198749757,-252.13793689639533,0.7174171253449377,113.08982597248108,17.024006888378857,-19.80534978394755,252.53329148425632,116.27951976668363
51,14.077900993704251,-251.91940682457167,0.7396618275765569,112.68863850007241,17.49135283351387,-19.454959689852434,252.32020608276514,115.94418352088452
52,14.160459425890265,-251.70154890654456,0.7665777993642443,112.10102884208916,17.916710331683106,-19.00968545744476,252.10747339622685,115.41057695895448
53,14.234929747606696,-251.48778153235617,0.7979726085854897,111.3238341656472,18.29321869353802,-18.4678025811352,251.89843611963926,114.67407682040442
54,14.300189550535498,-251.28159695011806,0.8335580471750286,110.35616144343672,18.61504919821711,-17.829747103912617,251.69651756871747,113.732665301754
55,14.355235974605792,-251.0864972156128,0.8729743516121362,109.19954769780259,18.877587010407403,-17.098202149360468,251.5051580602313,112.5871264787013
56,14.3991859207074,-250.90592234839667,0.9158146649682414,107.85809228136053,19.077582634232694,-16.278123929139728,251.32774337607444,111.2412041164344
57,14.43127451881027,-250.74317181268557,0.9616485940810431,106.3385495262531,19.21326536001533,-15.37670233337946,251.16752642731072,109.70170760869851
58,14.45085198935022,-250.6013210375339,1.0100436869153273,104.65037084473033,19.284411418414866,-14.40325372583462,251.02754382259374,107.9785538730762
59,14.457379076790566,-250.4831353342533,1.0605837223537495,102.8056868812226,19.292360463431717,-13.369046531972772,250.91052969125036,106.08473504063119
60,14.450421470997995,-250.39098438523968,1.1128829045209307,100.81922248071476,19.239975750615177,-12.287063404228684,250.81882994375312,104.0362045969992
61,14.429643942323153,-250.32676129737328,1.1665953998733518,98.70813995127153,19.1315460185152,-11.171706864371625,250.75432099394624,101.85167812784204
62,14.394805132514788,-250.29181065625332,1.2214201143336947,96.49180922237446,18.972630486211596,-10.038458041729626,250.71833742852715,99.5523487891365
63,14.345754047148327,-250.28686989491817,1.2771011023545478,94.19150684014825,18.76985221910916,-8.903500231718569,250.7116129977492,97.16152177883853
64,14.282429326484632,-250.31202771344653,1.3334244306693739,91.83004909051677,18.53064891822692,-7.783320397342505,250.73423873012882,94.70417612726001
65,14.204862229788208,-250.36670242318422,1.3902126036541036,89.43136771982607,18.262993439815183,-6.694302405385257,250.78564110721143,92.20646577111002
66,14.11318382003364,-250.44964200261336,1.4473177338978696,87.02003956975115,17.975098614650033,-5.652325761876651,250.86458212671172,89.69517490483942
67,14.007636151697827,-250.55894638300094,1.5046144824623415,84.62078382116401,17.675121938988894,-4.672382993123805,250.96918177933836,87.19714486096905
68,13.888586558324262,-250.69211118027422,1.5619934732062817,82.2579423387736,17.370885371248054,-3.7682277566943423,251.0969621264822,84.73869118328814
69,13.756543540664271,-250.84609095467286,1.6193555676580398,79.95495974433798,17.0696238889268,-2.952064373308011,251.2449109985514,82.34503010804228
70,13.612172294858237,-251.017379210142,1.6766071756094212,77.73388027135186,16.7777738940745,-2.234287782700201,251.40956243706174,80.03973338438584
71,13.45630765295559,-251.2021017417402,1.7336566791607753,75.61487814331467,16.50080934882823,-1.6232809462737645,251.58709038273196,77.84422929362249
72,13.289962259342667,-251.39611963250118,1.7904120643342842,73.6158371605439,16.243130027368068,-1.1252744923684004,251.77341180579768,75.77736591413225
73,13.114328244480642,-251.5951382335771,1.8467799463254295,71.75199339030924,16.008002799729542,-0.7442710468435553,251.964295529812,73.85505017883543
74,12.930771409795792,-251.7948187251586,1.9026661786432333,70.035652422355,15.797553685385022,-0.4820343438631225,252.15547330366348,72.08997320641141
75,12.74081781900312,-251.990889116041,1.9579779821358039,68.47598977748935,15.61280576506354,-0.3381409343626082,252.34274998275652,70.49142899112972
76,12.546133475850606,-252.17925167999957,2.0126270541171554,67.07893997629029,15.45375611272262,-0.3100901256864497,252.5221098595084,69.06523008242608
77,12.348498291886226,-252.35608394263622,2.066532657623449,65.84717664285336,15.319483803817581,-0.39346576980324904,252.6898163216629,67.81372055352875
78,12.149775798580299,-252.51793055525093,2.1196234701387118,64.78018288644688,15.208280703269248,-0.5821418314678367,252.84250224689075,66.73588338996215
79,11.951880144315732,-252.66178373859574,2.1718370828851246,63.874408084770124,15.117796933219934,-0.8685224916109074,252.9772488878776,65.82753639550614
80,11.756741937272654,-252.78515037976305,2.2231164906338203,63.12350413067397,15.04519346316038,-1.2438069646347918,253.09165140208614,65.0816078191651
81,11.566274479128637,-252.88610424761308,2.273403605507086,62.5186313064079,14.987295051537274,-1.698269181000158,253.18386956428233,64.48848024146481
82,11.382341871858355,-252.9633221159114,2.3226305297428875,62.04882136522611,14.940737767981913,-2.221542860456677,253.25266252430274,64.0363889661686
83,11.20673033804832,-253.0161028582565,2.3707097952334952,61.70138329501482,14.902106492943627,-2.8029031209150714,253.29740674189384,63.71185939280397
84,11.041123817078654,-253.04436886542558,2.4175249912748624,61.46233579056868,14.868059036259586,-3.431536548611348,253.31809650195746,63.50016674236144
85,10.887084445254093,-253.04864952607218,2.4629232465349107,61.316849825024796,14.835434720714202,-4.096792601137054,253.31532677908464,63.38580119327664
86,10.746037930382064,-253.03004709543737,2.506710882151765,61.24968494101531,14.801346315989651,-4.788410351826447,253.29025877190765,63.35292198176442
87,10.619263207993628,-252.99018605844637,2.548653100159156,61.245603910620964,14.763254983900083,-5.49671586208557,253.24456917498068,63.38578523974394
88,10.507885290284545,-252.9311479468532,2.5884778362016347,61.28975211283536,14.719028376204928,-6.212786763673266,253.18038507958076,63.46913214921093
89,10.412870054877516,-252.85539434188215,2.625883085527927,61.36799022898953,14.666982255130659,-6.928581861107675,253.10020714996958,63.58852627721423
90,10.335019915347814,-252.7656813939116,2.660546360322341,61.46717156469639,14.605906080091161,-7.637034738674073,253.00682432287277,63.730631655065785
91,10.27496971660481,-252.66496952837488,2.69213468340237,61.575358354718404,14.535073036676287,-8.332111517485055,252.90322363252756,63.88342619711114
92,10.233182560022746,-252.5563319833208,2.7203138073413515,61.68197460998159,14.45423505151593,-9.008834045079642,252.7924987654031,64.03634825466669
93,10.20994548977677,-252.4428654834436,2.7447560935496282,61.777896198593595,14.363603434533731,-9.663270837819512,252.67776063536832,64.18037724070402
94,10.205365173038626,-252.32760591940598,2.7651473611578625,61.85548171401769,14.263815881861895,-10.292498929783228,252.56205286036203,64.30805212322608
95,10.219363975966376,-252.21345154036555,2.7811935950052837,61.90855010917627,14.155890680928746,-10.89454036557578,252.44827468328242,64.41343400914974
96,10.251677095846462,-252.10309582293013,2.792628420515125,61.93231294456411,14.041169171450209,-11.46827747680585,252.33911354894022,64.49202093725184
97,10.301851526754506,-251.99897170596697,2.7992217724895894,61.92327038106971,13.921247891717705,-12.013351388967468,252.23698907705273,64.54062436246068
98,10.369247594429574,-251.90320827702655,2.800789531682118,61.87908079170983,13.797902334886345,-12.53004841005108,252.14400956052683,64.55721767694652
99,10.453043657953376,-251.8176003873838,2.797203411677712,61.79841410020282,13.673004746011618,-13.019179011335941,252.06194149879005,64.54076747249107
100,10.552244365370301,-251.74359113257853,2.7884002083477957,61.68079864758811,13.5484388435911,-13.481954048109053,251.9921921242882,64.491058064508
101,10.665692566803365,-251.6822666424853,2.774389678223422,61.52647052490392,13.426014761535976,-13.919862736758347,251.93580437640625,64.40851906736658
102,10.792084688785184,-251.6343621674991,2.7552606673121867,61.336232978192214,13.30738785947317,-14.334556690273052,251.89346331098054,64.29406460836572
103,10.929989146989605,-251.60027808498572,2.7311854272270235,61.11133187891142,13.193985209173785,-14.727743934159303,251.86551256556223,64.14895122436177
104,11.077867249427946,-251.58010425059888,2.7024221445366936,60.85335155878786,13.086943383959223,-15.101096213903238,251.85197929690324,63.97465974418181
105,11.234095985184435,-251.57365107334178,2.6693156239648212,60.56413368667163,12.98706063185296,-15.456172080053694,251.8526059575379,63.7728046659136
106,11.39699210007895,-251.5804857243026,2.632295990867737,60.24572042070069,12.894765696349522,-15.794357288901614,251.86688730780926,63.54507283103205
107,11.564836952457657,-251.59997191371158,2.5918752990400824,59.9003218429133,12.810104582739777,-16.11682309380683,251.89411108750673,63.293191664210966
108,11.735901765853148,-251.63131163270452,2.5486419980212327,59.53030662740148,12.732745562554758,-16.424502095269993,251.9334007382529,63.01892587734271
109,11.908472939953784,-251.67358716898858,2.503253263603149,59.13821392318543,12.662001739317686,-16.718080495895585,251.98375848207831,62.7241002670109
110,12.080877024071759,-251.72580169408354,2.456425221727698,58.72678352040386,12.596869577427379,-16.998004896490034,252.04410704589495,62.41064504762469
111,12.25150488602489,-251.78691691761122,2.408921135986941,58.29900053798332,12.536080916954926,-17.264501221854683,252.11332851309652,62.080659094582586
112,12.418834606726781,-251.85588668324982,2.361537699728351,57.85815013923829,12.478165222562925,-17.51760303360081,252.19029915835276,61.73648556674954
113,12.581452705062246,-251.93168576369206,2.3150896746367016,57.407877162991824,12.421518267387295,-17.757186400013406,252.27391950319603,61.38079368155113
114,12.73807341205183,-252.01333335173987,2.2703932535559987,56.95224510314282,12.364473227683652,-17.983008641601515,252.36313907087754,61.01665999735846
115,12.887555837607813,-252.09991082788437,2.228248668504844,56.49578863817745,12.305370270075597,-18.194748619414394,252.45697540436632,60.64764246819668
116,13.028918996781393,-252.190573384926,2.189422657871558,56.04355391607457,12.242621081611722,-18.39204671740161,252.55452691384394,60.27784075761024
117,13.161354764946287,-252.28455511077544,2.154631450770222,55.60112101334651,12.174765330358872,-18.57454319951772,252.6549791415687,59.91193676295915
118,13.284238853243837,-252.38116728411765,2.124524970885528,55.17460339376635,12.100516687788371,-18.741914109404384,252.7576041821415,59.55520995479381
119,13.397139752617932,-252.47978999289086,2.099672995580834,54.77061981191672,12.018796765061305,-18.893904268826464,252.8617533393603,59.21352297322152
120,13.499825247204354,-252.5798577012144,2.08055398320199,54.39623497994842,11.928756083906416,-19.030357184823576,252.96684359354228,58.893273964825504
121,13.592265631428852,-252.68083993127837,2.067547221490128,54.05886647723935,11.829781985644505,-19.151241769418835,253.07233896525062,58.60131340606868
122,13.674632411580019,-252.78221865193683,2.0609288554998915,53.76615684347372,11.721494168132145,-19.25667571390466,253.17772826580207,58.344824651576495
123,13.747291326976766,-252.88346419948212,2.0608721002933437,53.52581152823042,11.603729316514727,-19.346945190644437,253.28250096435787,58.13116915453184
124,13.810789137635624,-252.98401158893176,2.0674514415076595,53.345405280771224,11.476516989148326,-19.422520355447034,253.38612297639105,57.96769915254478
125,13.865834571675853,-253.08323891608666,2.0806500544534807,53.23216150144157,11.340049433647742,-19.484065960517885,253.48801408507904,57.86154245412084
126,13.913274599560413,-253.18044922502227,2.100369358495107,53.19271087690297,11.19464829018568,-19.53244629990642,253.58752843725006,57.819365647907446
127,13.954067473131326,-253.27485681829216,2.1264396716334883,53.232837116969904,11.0407311963481,-19.5687237225064,253.6839391835218,57.84712344628561
128,13.9892538622888,-253.3655786772014,2.158631134871968,53.357218624126006,10.878781131767388,-19.59415009839723,253.77642802324178,57.949802819302555
129,14.019927248897357,-253.45163151263532,2.1966642418128406,53.56917534003658,10.709320890690133,-19.61015094729039,253.86408026121543,58.131170976189466
130,14.047204588688162,-253.53193487498362,2.240219455657951,53.87042986677475,10.53289433814467,-19.6183024261775,253.94588588342955,58.39353614725017
131,14.072198028478711,-253.60532056563954,2.2889455901769566,54.26089147174695,10.35005517459226,-19.6203019505019,254.02074696027574,58.73752969760258
132,14.095988147963116,-253.6705483344082,2.3424668209308344,54.73847107645245,10.161362981567663,-19.617933769680103,254.0874914090618,59.16191764760112
133,14.119598905024487,-253.72632767621872,2.40038830378761,55.29893510490353,9.967385552780842,-19.613031232574805,254.1448929580464,59.66344945916925
134,14.143974312657893,-253.77134555172373,2.4623004427986745,55.93580627878324,9.76870606655111,-19.607437705605005,254.191697153271,60.23675211496023
135,14.169956870927557,-253.80429999197693,2.5277819478320462,56.64032000590225,9.565933530163388,-19.6029681154754,254.22665338105446,60.87427798129206
136,14.198267875233615,-253.8239396382825,2.5964019433527996,57.401445606023216,9.359715025415024,-19.601372869869024,254.24855297249957,61.56631540214834
137,14.229489909382282,-253.82910910024225,2.6677214434353402,58.20598179346822,9.15074847972044,-19.604305497678475,254.25627329696755,62.30107098384239
138,14.26405209209792,-253.81879941688086,2.741294457662945,59.03873507103598,8.939794886220984,-19.613294838451385,254.24882716721055,63.064831632562594
139,14.30221885448771,-253.79220186584257,2.816668889663536,59.88278753755806,8.727689059723831,-19.629722130764783,254.22541585075098,63.84221222772871
140,14.344082991399443,-253.74876212597601,2.8933872835115255,60.719856839439146,8.515348133942872,-19.65480302822729,254.1854827404568,64.61649119056453
141,14.389563388741303,-253.68823079876182,2.970987372382487,61.53074567450625,8.303777087807548,-19.689574461065682,254.12876371746484,65.37003123350338
142,14.438407348257517,-253.61070589594112,3.0490023113836253,62.295871757129696,8.09407066470135,-19.73488628201794,254.0553298130383,66.08477657146574
143,14.490197086394527,-253.51666315162868,3.1269604802939797,62.995862094253766,7.887411151175273,-19.7913976272963,253.96561800581372,66.74281134191942
144,14.544359942687667,-253.4069707511611,3.20438482594511,63.61218857986111,7.685061613952611,-19.859577774587628,253.86044672069528,67.32695757569799
145,14.600182028014496,-253.28288615242383,3.2807918174779913,64.12781612033334,7.488354342329794,-19.93971098978658,253.74101368764374,67.82138554546874
146,14.65682523886327,-253.14603403961718,3.3556901796610537,64.5278305185634,7.298674425783141,-20.031904489160006,253.6088751910947,68.21220544299126
147,14.713347554809351,-252.9983659988758,3.4285796763651075,64.8000117731963,7.117438655220038,-20.13609829838538,253.46590728793313,68.4880077258707
148,14.76872629828729,-252.84210411460913,3.498950314816746,64.93531967082536,6.94607025891269,-20.25207558223089,253.3142511672149,68.6403205490938
149,14.821883726876358,-252.67967218353996,3.5662823419941865,64.92826264760383,6.785970287624352,-20.379472050088065,253.15624630382584,68.66395657713366
150,14.87171414711581,-252.51361935080075,3.630047274206823,64.77712757657257,6.6384866818315995,-20.517783336613856,252.99435615175233,68.55722788764236
151,14.917111747228102,-252.34654139870403,3.6897100256417126,64.48405671940316,6.5048822046844235,-20.666369747106238,252.83109154547273,68.32201596567317
152,14.956998426754073,-252.18100458172586,3.744732109001424,64.05496765532757,6.386302555235127,-20.824458330622416,252.66893664384838,67.96369304764907
153,14.990350900293878,-252.01947599445248,3.794575894524418,63.499321634795045,6.283746071506526,-20.991142791497932,252.51028134450553,67.49090037970089
154,15.016226275970315,-251.86426332556456,3.8387099133234774,62.82975467206393,6.198036415315508,-21.16538219565506,252.35736295872744,66.91519747898607
155,15.033785351363713,-251.71746580869447,3.876615056480205,62.061593096808416,6.12979945549312,-21.345999728337603,252.21221889599923,66.25060354558602
156,15.0423131738667,-251.580937378303,3.907791263273757,61.21228073376532,6.079445261494016,-21.531682897899827,252.0766513219757,65.51305728832509
157,15.041236825085392,-251.456262415258,3.9317640447178994,60.30074816480674,6.047155739741169,-21.720986571955766,251.95220415655888,64.71982441644523
158,15.030140586091617,-251.3447438804243,3.9480901103985238,59.346755728322485,6.032878032704194,-21.91234011450685,251.84015220898053,63.88888300957815
159,15.008778485267003,-251.24740301450888,3.956361521602906,58.370241245305685,6.036323394786749,-22.10405967797692,251.74150162408594,63.038316138874194
160,14.97708387959972,-251.16498916167137,3.956208138809786,57.3907011543659,6.056970914766032,-22.29436636845656,251.6570001793905,62.18573869806943
161,14.935175417075419,-251.09799774873443,3.947298594402549,56.42663002118493,6.094075246020071,-22.481410546047663,251.58715543566876,61.34778165952774
162,14.883358605482945,-251.04669413411196,3.929340490037697,55.495038564626014,6.14667749851963,-22.6633020178677,251.53225842474006,60.539652231821385
163,14.822122270918323,-251.01114100505302,3.9020807967642552,54.611064795782674,6.213618651622757,-22.83814543783784,251.49241052871204,59.774783074178934
164,14.752129398959973,-250.99122723706057,3.865307363055828,53.78768702017216,6.293555197346219,-23.004079907216816,251.4675514509643,59.064578228426555
165,14.674202246120572,-250.98669652515605,3.8188520632424807,53.03554170799972,6.384977093184226,-23.15932154475988,251.45748659457558,58.41825809327552
166,14.58930219095002,-250.99717447203673,3.762595692669673,52.36284391256865,6.486228360826208,-23.302207587840265,251.4619125715365,57.8428008189067
167,14.498505392871644,-251.0221930185822,3.696474459065834,51.77540321759838,6.595530734836079,-23.43124035729905,251.48043980269324,57.34297309396768
168,14.402975719050401,-251.06121111735368,3.6204878768495696,51.27672422947251,6.711010623942189,-23.54512920784095,251.5126112089296,56.92143954502535
169,14.303936541155016,-251.11363051819268,3.5347079518808746,50.86817748030421,6.830729320742695,-23.64282847446168,251.5579159724167,56.5789369831794
170,14.20264298715517,-251.1788056248202,3.4392896314357477,50.54922438885229,6.95271597831342,-23.72356949480873,251.61579743531055,56.314497665105364
171,14.100356085500897,-251.2560466871096,3.3344825018684157,50.31767877969174,7.075002526267041,-23.786885076537388,251.6856544982275,56.125704746127134
172,13.998319925128166,-251.34461613815904,3.220643598165817,50.169987457020866,7.1956595485320385,-23.832625243198525,251.76683640322906,56.00896324766092
173,13.89774253049201,-251.44371865015322,3.0982509240317317,50.10151339213974,7.3128321947994355,-23.86096362317401,251.85863152097176,55.959771026432755
174,13.799780765753571,-251.55248636045548,2.967916889521578,50.106807017914626,7.424775374246947,-23.872394346905388,251.96025160999423,55.97297619512393
175,13.705529314729858,-251.66996147673848,2.8304004768311204,50.17985370862782,7.529887708600139,-23.867719738658074,252.07081375097343,56.04300997753082
176,13.61601356988249,-251.79507887780477,2.6866167324380728,50.31428856346541,7.626743937651736,-23.848029411806024,252.18932254970073,56.16408689484123
177,13.532186017102319,-251.92665130458528,2.537642255721664,50.50357290035046,7.714125613485998,-23.81467161196464,252.31465516559936,56.330367282012986
178,13.454925425321482,-252.06335933301526,2.3847156412568933,50.7411301555255,7.791049950548919,-23.769217831519757,252.44555130639208,56.53608020362754
179,13.385037919162519,-252.20374767218854,2.2292321896572536,51.02044192999567,7.8567966198746,-23.713421848159683,252.5806096713598,56.7756076561456
180,13.323258908111756,-252.34622866122052,2.072732514672888,51.33510754905387,7.910932128525773,-23.64917439062373,252.71829165194217,57.04353333946434
181,13.270254892931261,-252.4890933429244,1.9168848749576535,51.67887259224597,7.953331255798213,-23.57845459443782,252.8569326060386,57.334661152103486
182,13.226624346146835,-252.63053018014668,1.76346115334497,52.045633332688354,7.984194841591514,-23.50327930695626,252.99476071875964,57.64400985539
183,13.192897118616646,-252.7686512014161,1.614306504447577,52.42942485141046,8.004063042194625,-23.425651186986006,253.12992319655842,57.96679104403128
184,13.16953208324529,-252.9015249655587,1.471302938972444,52.824400752460534,8.013823021214654,-23.3475064831345,253.26051916041547,58.29837767562771
185,13.156912924761015,-253.02721517438738,1.3363275600792879,53.22481192660475,8.014709994610701,-23.270663419263574,253.38463805779352,58.63427000903418
186,13.155342117614092,-253.14382313325243,1.2112067300439031,53.62499077222238,8.008300642741425,-23.196772266733696,253.50040179552846,58.97006495911909
187,13.16503325470889,-253.24953177582717,1.0976680020996725,54.01934580157214,7.996498131233847,-23.12726837325599,253.6060083229611,59.30143367258873
188,13.186102074928323,-253.34264885329054,0.9972921016907419,54.402369801048145,7.981508299966217,-23.06332954581295,253.69977429150092,59.62411066087275
189,13.218556842104558,-253.42164719620675,0.9114674686097037,54.76866288964581,7.965806929870173,-23.005839195375167,253.78017474321626,59.93389625025868
190,13.262289096588558,-253.48520052107432,0.8413497905098107,55.11297017647857,7.952098342011811,-22.95535656507715,253.84587836472053,60.226672650453786
191,13.317066047625264,-253.53221381920224,0.7878286265866214,55.43023245521929,7.943265918539325,-22.91209521488878,253.89577742027254,60.4984327969501
192,13.382525819478285,-253.56184778193182,0.7515027801168088,55.71564756419084,7.942315473462164,-22.875910732945993,253.9290118894443,60.7453203655749
193,13.458176384758769,-253.57353697673153,0.732665577614184,55.96473961962393,7.952312715070685,-22.846298407826726,253.94498757315284,60.96367893616069
194,13.543398470929953,-253.56700166237394,0.7313005991670775,56.17343313528022,7.976316258176201,-22.822401361460976,253.94338807510206,61.150108053591474
195,13.637452238925778,-253.5422532950393,0.747087690574242,56.33812888264871,8.017307739288459,-22.803029410875475,253.92418070231273,61.30152372152836
196,13.739487271528446,-253.49959397108898,0.779418421380501,56.45577809283967,8.078120639312496,-22.786688673983463,253.88761650663147,61.41522055040891
197,13.848555388938,-253.4396102712848,0.8274197054517876,56.523951283849335,8.161369513474215,-22.7716216312989,253.83422490405252,61.48893239650113
198,13.963625895277683,-253.3631621971384,0.8899841129518107,56.54089780524649,8.269381439647237,-22.755856961484294,253.76480353537445,61.52088803129485
199,14.083602865340186,-253.27136809575754,0.9658053798209186,56.5055923548629,8.404131488181726,-22.737267958889408,253.68040423433894,61.50985835550613
200,14.207343932070561,-253.16558659100568,1.0534176613045296,56.41776537105452,8.5671837812541,-22.713637758817132,253.58231608152605,61.455192043853074
201,14.333679857536257,-253.04739651030906,1.1512371488946376,56.27791531965975,8.759639282003612,-22.682729052625188,253.47204648587464,61.3568372998198
202,14.461434151088723,-252.9185756108953,1.2576047874829324,56.08730231343206,8.982090978646177,-22.642355589480708,253.35130105368114,61.21534851965581
203,14.589442173040316,-252.781078587036,1.3708289910582472,55.8479239779352,9.234586756871877,-22.590452590186825,253.22196269850843,61.03187791965867
204,14.716569387755685,-252.63701439354395,1.489227406471745,55.56247578977365,9.516600083568669,-22.52514321346535,253.08607001707978,60.80815336760302
205,14.841728562840707,-252.48862242558977,1.611166830869192,55.2342991253609,9.82700869101047,-22.444798364670877,252.94579447068136,60.546444642907915
206,14.963895747622285,-252.3382467270087,1.7351003314234454,54.86732088849285,10.164081712567054,-22.348087399629197,252.8034155439085,60.24952104649547
207,15.082124886667046,-252.1883073178917,1.8596005243586644,54.46598876259671,10.525476074902025,-22.234017647578664,252.66129296791527,59.920603613639905
208,15.195560968325845,-252.04126793687792,1.9833879391172262,54.03520583604111,10.908243285064634,-22.101961156120506,252.52183529721765,59.56331511731847
209,15.303451632247413,-251.8995998385958,2.1053534818618633,53.58026764519007,11.308847990089097,-21.951667670868847,252.38746447122477,59.181630649170806
210,15.405157101285473,-251.76574164627044,2.2245742239490522,53.10680370802366,11.723199792435611,-21.783263620950464,252.2605763452113,58.77983095698529
211,15.500158146016616,-251.64205563639032,2.3403220046363677,52.62072453667773,12.14669974288063,-21.597237722920934,252.14349754139548,58.362460008123634
212,15.58806161544033,-251.5307812784013,2.452064584123215,52.12817406506329,12.57430266454652,-21.39441458918329,252.0384394049025,57.93428749764675
213,15.668603039302386,-251.43398735093695,2.5594593445979212,51.635486530123664,13.000595951700719,-21.17591829216115,251.94745034545454,57.50027627418478
214,15.741646037072927,-251.35352441735057,2.6623398760556163,51.149146182741696,13.419894712098753,-20.943128147463852,251.87236832209848,57.06555396744572
215,15.807178662728202,-251.2909797516331,2.76069617794635,50.675747794732985,13.82635210226295,-20.69762910053296,251.8147755639372,56.635387514828494
216,15.865307141726522,-251.24763688886546,2.854649585056068,50.22195574321007,14.21408255016074,-20.441159138082458,251.7759577269705,56.215158837769096
217,15.916247596023071,-251.22444187977595,2.944423836471291,49.794459472265885,14.577294465627332,-20.175556146534856,251.75686960483944,55.81033965019463
218,15.96031634862603,-251.22197813165275,3.0303139060459796,49.39992336374481,14.910428201078922,-19.902706558404436,251.75810931644497,55.426463324943306
219,15.99791927150654,-251.24045132578954,3.112654248672278,49.04492950071822,15.208294530861432,-19.624497898268285,251.77990249486731,55.06909190479946
220,16.02954034675762,-251.27968515610672,3.191787958094933,48.735912465875806,15.466208725424606,-19.342776960803626,251.82209723808353,54.74377670865913
221,16.05572921671389,-251.33912762133536,3.268038012931583,48.479086160710295,15.6801153154649,-19.059314885182705,251.88416954408763,54.456011539287225
222,16.077087232048854,-251.41786664767963,3.3416814477733032,48.280363606511685,15.846698822090517,-18.77577989598008,251.96523798118713,54.21117821593352
223,16.094251570242488,-251.51465319503774,3.4129271095892766,48.14527165337335,15.96347608355632,-18.49371797594272,252.06408572837603,54.01448491963952
224,16.107877354219273,-251.62792982509328,3.4818976885743984,48.078863250926396,16.028866363789113,-18.214541202716905,252.17918797456107,53.87089845319175
225,16.11861810861931,-251.75586296610226,3.5486167906708586,48.08563021052098,16.04223619466525,-17.939522942689724,252.3087429512348,53.7850718064712
226,16.127105150713327,-251.89637760292158,3.61300176623009,48.169419144215766,16.003916895917925,-17.669798652119123,252.4507053814018,53.76126836403125
227,16.133926620092527,-252.04719355952693,3.6748627736072734,48.33335263049724,15.915193932937028,-17.406370807412397,252.602821566799,53.80328385230848
228,16.139606913265954,-252.20586277164753,3.733908196194138,48.579756885590086,15.778268628085959,-17.150116502641847,252.76266556195483,53.91436690301841
229,16.144587391174188,-252.36980705650242,3.7897561401131616,48.91009655456267,15.596194048675658,-16.901796413027085,252.92767599186854,54.09713901554174
230,16.14920936288479,-252.5363560586969,3.841951381727491,49.32491680397449,15.372787960103993,-16.662063984919996,253.0951932435494,54.353514724205226
231,16.15370043265405,-252.70278534559597,3.8899868014231416,49.82379271328556,15.112526464148555,-16.43147383079067,253.2624970537948,54.68462288260921
232,16.158165254044505,-252.86635488742505,3.933328004449869,50.40528601403257,14.820422384331074,-16.210488461596974,253.42684476774278,55.090730200163605
233,16.162581565651088,-253.02434818040885,3.9714395760936223,51.066909504670896,14.501892735355227,-15.999482765562536,253.58551055196992,55.57116856906587
234,16.166802136960044,-253.1741120368252,4.003811431005639,51.805099908191906,14.162619810778137,-15.798746032701821,253.73582560047635,56.124268271282936
235,16.170562934454612,-253.3130967196891,4.029984014371066,52.615200398939706,13.808410525086517,-15.60848173375041,253.87521901664158,56.74729969745858
236,16.1734973773026,-253.4388957459917,4.049571439953213,53.491454379534986,13.445058572329453,-15.428805570618588,254.00125868350855,57.436426574688916
237,16.175156006540682,-253.5492843628199,4.062281795436232,54.42701228218182,13.07821366439349,-15.259742428102829,254.11169108640382,58.18667379886006
238,16.175030397744823,-253.64225549487395,4.067933914085049,55.41395315331238,12.713261598604351,-15.101222757750639,254.20447881668372,58.99191275721181
239,16.17257987716714,-253.71605195042739,4.066470131053236,56.44332249008958,12.355218211673291,-14.953078710654843,254.27783445909157,59.84486648528333
240,16.167259585006548,-253.7691938781997,4.057964944581363,57.505187251378956,12.008639457144252,-14.815040157145948,254.33024977375035,60.73713620484333
241,16.15854855255918,-253.80050088388714,4.0426298980454485,58.58870837061549,11.677548984695685,-14.686730685452403,254.3605195112897,61.65924997770627
242,16.145976587736065,-253.809108789815,4.020815179000037,59.682230787806425,11.365383813194885,-14.567663761832002,254.3677597816775,62.600733724606556
243,16.129148834898267,-253.79448161574305,3.993008336825996,60.77339125823629,11.074958071476896,-14.457239410472036,254.35142149076069,63.55020495516463
244,16.10776690151944,-253.75641980578422,3.9598302407826003,61.84924499497594,10.80844436851528,-14.354741969968144,254.31129979846926,64.49549023391054
245,16.081645478617272,-253.69506590133378,3.9220280657521807,62.89641328236192,10.567372086419203,-14.25933964780958,254.24754072079892,65.4237683792705
246,16.0507235109944,-253.61090870062446,3.880464832725805,63.901255114608986,10.352641634993432,-14.170086689200913,254.16064584001728,66.32174220341572
247,16.015069286977408,-253.50478646801292,3.836104973899965,64.85006619480625,10.164553373585452,-14.085928989691668,254.05147562824067,67.17584177923683
248,15.974879312797567,-253.3778890397183,3.7899955945736163,65.72930788177445,10.002849502037774,-14.00571390805167,253.92125120878555,67.97246138804024
249,15.930471362683264,-253.2317578262049,3.743243491013457,66.52586672696184,9.866766809062579,-13.92820487398906,253.77155357503779,68.69823030329883
250,15.882272493457505,-253.0682819242327,3.6969884078124653,67.22734226535755,9.75509781156838,-13.852101144158947,253.60431853425973,69.34031457135195
251,15.830803104296193,-252.8896880998212,3.6523733603312944,67.82235715383725,9.666257605293204,-13.776062768479008,253.42182521848207,69.88674340108774
252,15.776658404168757,-252.69852243744435,3.6105130743680474,68.30088013157744,9.598353761455593,-13.698740532700011,253.22667606207665,70.3267502175731
253,15.7204888434194,-252.49762185418803,3.572461741804653,68.65454910765408,9.549256886580162,-13.618810373859283,253.02176656488427,70.6511153612077
254,15.662980992306371,-252.2900742654094,3.539181372158031,68.87697933023338,9.51666998941228,-13.535011494192318,252.81024374466526,70.85249517135009
255,15.604839987224752,-252.07916691912652,3.51151198359845,68.96404030112637,9.498195492242047,-13.44618705561997,252.59545288943627,70.92572098920941
256,15.546774167385975,-251.8683233166383,3.490144682329772,68.91408503434388,9.491399456989113,-13.35132590093332,252.3808730849908,70.86805158724565
257,15.48948204473998,-251.66103014848696,3.475598399921949,68.72811652136745,9.493873223677182,-13.249603304121335,252.17004296845562,70.67936377777862
258,15.433641367881965,-251.4607566545423,3.468200866175182,68.40987886064833,9.503293078594993,-13.140418436287314,251.96647910958256,70.36226848567263
259,15.379899800978762,-251.27086963492988,3.4680744031258737,67.96586429898721,9.517478727623606,-13.023426141318508,251.77359022266373,69.92214327095377
260,15.328866666376932,-251.09454791226722,3.4751272447253063,67.40523212120577,9.534451186566711,-12.898560765304623,251.59459098170962,69.36707686880352
261,15.281105266266126,-250.93470028557329,3.489051099139358,66.73964044402507,9.552490177473306,-12.766050128103018,251.43241945545566,68.70772631043357
262,15.237125445156122,-250.7938908446027,3.509325467938749,65.98299695829836,9.570190342666814,-12.626418195015718,251.28966201383702,67.95709204877787
263,15.197376258129141,-250.67427497201336,3.5352289072711804,65.15113901809664,9.586514796008494,-12.480475562900857,251.16848902524134,67.1302207629261
264,15.16223884971316,-250.57754860659975,3.5658570873303903,64.26145684857593,9.600843908136042,-12.329297509271653,251.07060392132848,66.24384883191094
265,15.13201984556429,-250.50491250903664,3.6001472152933984,63.332475844691544,9.613016786172786,-12.17419003837252,250.99720738414888,65.31600166303181
266,15.106945649254026,-250.45705240667368,3.6369081281241646,62.38341491083083,9.623362621891298,-12.016645038566214,250.94897754887657,64.3655650771747
267,15.087158031008544,-250.43413502929798,3.6748551405459664,61.43373762953287,9.632718993000202,-11.858286275191315,250.92606624857441,63.4118448770485
268,15.072711301363816,-250.435819280975,3.712648563063394,60.50271190390062,9.642434422547735,-11.700808413592695,250.92811055315866,62.474129720012286
269,15.063571172671335,-250.46128122117585,3.7489347118016774,59.608991787205426,9.654353107096084,-11.545911536409811,250.95425827045707,61.57127068230815
270,15.05961522339584,-250.5092511555099,3.7823882328923606,58.77023273309377,9.67078069373734,-11.395233669164089,251.003205693595,60.72128866677486
271,15.060634854136465,-250.57806089441868,3.81175463224973,58.00274873597337,9.694431198683649,-11.250283709041685,251.0732456370635,59.94101831885112
272,15.066338758296832,-250.66569905623996,3.8358919927583393,57.32121703141535,9.728356428822167,-11.112376955916723,251.1623236316185,59.24579459618324
273,15.076358035432088,-250.76987214414027,3.8538109315292033,56.73843341110326,9.775860388158573,-10.982575250634891,251.26810000801234,58.649185769674965
274,15.090253015649477,-250.88806905919358,3.864711839202453,56.26511893681932,9.840401958251743,-10.861633562746377,251.3880155267134,58.1627745445518
275,15.107521700480627,-251.01762677255775,3.8680183071469574,55.9097769458129,9.9254895605977,-10.749954718491825,251.51935825660368,57.79598719379121
276,15.127609601886766,-251.15579503626466,3.8634054181834707,55.67859766157731,10.034571582588523,-10.647553777605241,251.6593295475873,57.555969035358274
277,15.149920741137807,-251.29979822164393,3.8508213603850088,55.57540643638289,10.170926201503283,-10.554033330857607,251.8051071430051,57.447503259033276
278,15.17382962529165,-251.4468926581096,3.8305007551449384,55.60165073073687,10.337553972521327,-10.468570715151753,251.95390375950916,57.472969115763306
279,15.198694095179809,-251.59441818105145,3.8029682478835616,55.75642046620145,10.53707616103894,-10.389917858428648,252.10301980057244,57.63233491448738
280,15.223868978201372,-251.73984286783872,3.7690312615166865,56.03649636701494,10.771641268506954,-10.316414178146557,252.24988914318808,57.923181121098686
281,15.248720417721396,-251.88080008732513,3.729761272247012,56.43642124859539,11.042841576235752,-10.246012651156763,252.3921170825393,58.34074904519994
282,15.272640568732283,-252.0151171302426,3.686463506258926,56.94858984876684,11.351640940226915,-10.176318849488723,252.5275096558103,58.8780110849182
283,15.295062158170868,-252.140835063717,3.6406356389311476,57.56335373144733,11.69831461026105,-10.104642419955194,252.6540939426585,59.52575929787962
284,15.315472362316962,-252.2562202122261,3.5939169237355393,58.269139029186356,12.08240154199961,-10.028060195875689,252.77012971687026,60.27271019123041
285,15.333425520761072,-252.3597686140286,3.5480300084176966,59.05257624035782,12.502669514063454,-9.943489846420631,252.8741137984162,61.10562498444401
286,15.348554211701995,-252.4502054619504,3.5047182758288864,59.898642773232815,12.957093340494538,-9.847772641425822,252.964779133855,62.00944600541642
287,15.360578147059877,-252.5264816265675,3.465681831172257,60.79082024450715,13.442846558390865,-9.73776351724445,253.04109072849158,62.96745114283445
288,15.369310375122863,-252.58776903956584,3.4325153129785755,61.71126956632076,13.95630714377306,-9.610426215411644,253.1022402394223,63.96142927337337
289,15.374660433519702,-252.63345629297214,3.4066505167981687,62.64102752058242,14.493078042254211,-9.462930886620082,253.147640624735,64.97188024404683
290,15.376634225654868,-252.66314540864335,3.3893063771287992,63.560228765614646,15.04802355136351,-9.292751229601233,253.1769218439583,65.97824325672431
291,15.375330463694564,-252.6766503438803,3.3814482662570238,64.4483569720033,15.615322771845126,-9.097757977735048,253.1899282103768,66.95915728239399
292,15.37093367914447,-252.67399742444223,3.3837579849817985,65.28452796855144,16.188541338319133,-8.87630540176365,253.18671762033551,67.89275633676212
293,15.363704112542532,-252.65542752519315,3.3966153164230497,66.04780638339393,16.760722352946207,-8.627307548881515,253.16756252304816,68.75700105666972
294,15.353965125570896,-252.62139944822215,3.420091584234235,66.71755535860932,17.324496871117656,-8.350301230439813,253.13295213541542,69.53004609894231
295,15.342088984513024,-252.57259364197233,3.453955223473324,67.27381661835925,17.872213493393282,-8.045493230751523,253.0835951035239,70.19064055543073
296,15.328481904841707,-252.5099152010714,3.4976888411653264,67.69771560626002,18.396085674488926,-7.713789712364193,253.02042160152828,70.71855595320373
297,15.313569154774513,-252.43449491897815,3.550516616239086,67.97188368270542,18.888354309830202,-7.356806297309808,252.94458367592017,71.09503358878946
298,15.29778086245241,-252.34768697522122,3.6114403112849693,68.08088660462303,19.341462066657016,-6.9768578622341515,252.85745243566174,71.30324006593568
299,15.28153904903469,-252.2510616755469,3.6792817921981964,68.01164589997244,19.748234913735413,-6.576927725829026,252.76061051269755,71.3287171957314
300,15.265246323518873,-252.14639162311332,3.7527297814533576,67.75383759376656,20.102065501076083,-6.160616574746667,252.65583816924868,71.15981018473676
301,15.249276485149723,-252.0356298558661,3.830388532504946,67.30025135037029,20.397092510547655,-5.732072098949823,252.5450915725003,70.78805658317793
302,15.233966883177143,-251.92087889954394,3.910826181564928,66.64709268567428,20.628369825081265,-5.295900879985,252.4304721473727,70.20851799604621
303,15.219611921465946,-251.80435037721102,3.992620713574083,65.79421155036141,20.792019299302446,-4.8570646400566275,252.3141865821621,69.42003714505091
304,15.206456852625976,-251.6883157171056,4.074401745928335,64.74524227050917,20.88536103782503,-4.420763549960797,252.1984979490622,68.42540449055296
305,15.194691141774154,-251.57504948659394,4.1548866318840885,63.50764251189006,20.907015456239876,-3.992309883438199,252.0856693964304,67.23142125667351
306,15.184441121405806,-251.4667677980383,4.232909667397188,62.092622561215286,20.856972118603622,-3.5769958072837897,251.9779028142352,65.84884932893145
307,15.175762211511678,-251.36556490203495,4.30744347641254,60.5149606913764,20.73662145962106,-3.179959421736383,251.8772755775634,64.29224302544942
308,15.168631465971961,-251.27335139711928,4.377612069511065,58.79270551335816,20.548746929749687,-2.8060532970774554,251.78567882023484,62.57966298158975
309,15.162941526802125,-251.19179749316388,4.4426956977928596,56.94677171515761,20.2974766984845,-2.4597197415054906,251.7047607276455,60.732278011724524
310,15.158497184675797,-251.122284550377,4.5021283395842095,55.0004410157781,19.988195689994008,-2.144876917067704,251.6358781417847,58.77386637949753
311,15.155015649385076,-251.06586764353804,4.555489207152854,52.97878503122556,19.627420317241153,-1.8648196658662937,251.58005930218167,56.730232931313175
312,15.152131344629328,-251.02325111559165,4.60248989997108,50.90803065802406,19.222639743229692,-1.622138481383237,251.53797974625707,54.6285626228987
313,15.149405620530386,-250.9947780659575,4.642958851823759,48.81489129267843,18.782128751455282,-1.4186594803016561,251.5099523474872,52.496733851767466
314,15.146341327149953,-250.9804336494069,4.6768246690097355,46.72588862007948,18.314738293965974,-1.255407562075472,251.49593137276423,50.36261659012192
315,15.142401811317624,-250.97986111293403,4.704099795584016,44.6666897862046,17.829670497196233,-1.1325942401023503,251.49552947017108,48.2533805683572
316,15.137033631223664,-250.99238880547148,4.724865524199156,42.661483547763034,17.336245388657655,-1.0496309067987557,251.5080457905531,46.194837740322306
317,15.129692094598074,-251.01706603285388,4.739258760397837,40.73241659434211,16.843666898446713,-1.005167534799694,251.5325030716054,44.21084110842703
318,15.119868534602718,-251.05270555464853,4.7474604204112865,38.89910789697105,16.360795763037466,-0.997155970673274,251.56769142398684,42.32275890343694
319,15.107117991626408,-251.09793059870393,4.749685061994288,37.17825490214736,15.89593675976207,-1.0229360030463888,251.61221662163584,40.549039309296994
320,15.09108572546012,-251.15122439858672,4.746171262548878,35.58334090025947,15.456647195139327,-1.079341283869295,251.6645508120143,38.90487659914693
321,15.071530881399795,-251.21098041339408,4.73717232109594,34.124448227447246,15.04957274976819,-1.1628210164102253,251.72308371092427,37.40198494492988
322,15.048345745767262,-251.27555156615261,4.722947117023398,32.808177443243736,14.680315661070587,-1.269572236034938,251.7861725341312,36.04848157815366
323,15.021569262440124,-251.34329701345493,4.7037513670581825,31.63766858815983,14.353338858055857,-1.3956766742751698,251.85218911547747,34.848876726385534
324,14.991393747761018,-251.41262515126436,4.679829852175796,30.612717299177003,14.071908135864351,-1.5372357474444192,251.9195628744762,33.80416408395908
325,14.958164089449337,-251.48203185289324,4.651410212098967,29.729976036776815,13.838072853108327,-1.6904972189655894,251.98681860763526,32.912002631147075
326,14.922369222243528,-251.5501333511739,4.618698640390932,28.98322891251223,13.652684020563894,-1.8519675894798464,252.05260851835632,32.16697840687607
327,14.884626266662428,-251.61569359589163,4.581877467331597,28.36372749896773,13.515447105765208,-2.0185052678266713,252.11573834774364,31.56093331925106
328,14.845658245637757,-251.67764619475628,4.541104357413965,27.860574441715027,13.425005502609405,-2.1873909661007582,252.17518777175394,31.083347175478846
329,14.806266675509322,-251.73511115793647,4.496512723688577,27.461141552386042,13.379049504045653,-2.356373332634246,252.2301253611484,30.721758724064795
330,14.767300574211811,-251.7874066688281,4.448213026929143,27.151509228195867,13.374444844195263,-2.523689344783355,252.27991841781383,30.462211513472884
331,14.729623595572034,-251.83405605558167,4.396294927935171,26.91691444840843,13.40737448937588,-2.688060263372793,252.3241379665369,30.289710714598513
332,14.694081114348053,-251.8747901006044,4.340830652008992,26.74219522123311,13.473487369114796,-2.848664997096157,252.36255915620734,30.188677720033105
333,14.66146908735614,-251.90954483572673,4.28188008779394,26.612220184841007,13.568048130409032,-3.0050936718102763,252.39515733704317,30.143390331498107
334,14.632506304437703,-251.93845499993708,4.21949788388199,26.51229308185139,13.68608271468526,-3.157285158807724,252.42210009334002,30.13839765708156
335,14.607811252490393,-251.9618433453864,4.1537422700353215,26.428523008471153,13.822515488988556,-3.3054532063191653,252.44373548875083,30.15890038967275
336,14.587884400087441,-251.98020597672445,4.0846848539187315,26.348152684038325,13.972294657226374,-3.4500063863164936,252.46057674707149,30.191088824622835
337,14.573096344798387,-251.99419392742644,4.012420456893952,26.259838479949863,14.13050358188432,-3.591467096292059,252.4732835828259,30.222432694922578
338,14.56368191206831,-252.00459123439646,3.9370761387835134,26.153877536011148,14.29245639236089,-3.730394329853759,252.48264043162018,30.24191858148938
339,14.559739978340495,-252.0122898899433,3.8588187506267078,26.02237891763445,14.453776912537831,-3.8673140405441164,252.48953193040006,30.240232292451697
340,14.561238619190071,-252.0182622271079,3.777860513617512,25.859377418397848,14.610460661296699,-4.00265993946504,252.49491616379848,30.20988527757982
341,14.56802515810336,-252.02353149213366,3.6944622910995166,25.66089032254759,14.758920543103352,-4.13672667862016,252.49979638635452,30.145285926672
342,14.57984065225147,-252.0291415293593,3.6089344910984402,25.42491923619463,14.896017738122195,-4.269636595529754,252.5051920973309,30.042758463740014
343,14.596338112168654,-252.03612660727228,3.521635828054185,25.15140096693423,15.019079990134076,-4.401320450465325,252.51211043322058,29.900513975462008
344,14.617103244415965,-252.04548242697604,3.432970271748236,24.842113336077894,15.125909815500734,-4.531511865932055,252.52151882369373,29.71857979301452
345,14.641675850302315,-252.0581392864556,3.3433823388560593,24.50054362579004,15.214785132251215,-4.659754577958884,252.53431974571413,29.4986948908087
346,14.66956952855633,-252.07493821681595,3.2533505831169784,24.131728858349373,15.284454558391278,-4.785421219156868,252.55132822027284,29.244180030344722
347,14.700287428825598,-252.096610599267,3.1633789278792364,23.742077969095373,15.334129266785565,-4.907742177855057,252.57325239711753,28.959791854601672
348,14.733332689026026,-252.12376133082887,3.0739854927151042,23.339185898610353,15.363472867888033,-5.025843069451348,252.60067719897228,28.65156983815846
349,14.768213559713022,-252.1568552226679,2.9856888280982417,22.93164854741797,15.37259033956232,-5.138789445570697,252.63405071635074,28.326683827428315
350,14.804444444529135,-252.19620617452634,2.898991943322792,22.52888545744126,15.362016534943713,-5.245637450223911,252.6736729963509,27.993287916263128
351,14.841544751265435,-252.24196875095748,2.8143650663112765,22.140974313381236,15.332704265921429,-5.345489089040007,252.71968700135008,27.66038382738422
352,14.879037533143356,-252.29413193492778,2.732228537278272,21.778498403518444,15.286011397689554,-5.437550521102666,252.7720716708933,27.33769420382612
353,14.916449521637025,-252.3525149524806,2.652937466737326,21.45240557746349,15.223685885868475,-5.5211913222612266,252.8306371140564,27.035543720627143
354,14.953313441000143,-252.41676517423383,2.576769716706311,21.173875374617854,15.147847372836337,-5.596002125511614,252.8950220264299,26.764744105476304
355,14.989172716717992,-252.48635831648707,2.5039184311608094,20.95419004386206,15.060963904331468,-5.661847569409596,252.9646935929056,26.536478217703124
356,15.023588174926333,-252.56060155495086,2.4344898720019703,20.804605106351485,14.965822494809485,-5.718911164787337,253.03895049183072,26.36217825930107
357,15.056146162821635,-252.63864060312895,2.368506825279565,20.73621575062278,14.865492592620233,-5.767728564653518,253.11693003826377,26.253393812622164
358,15.086467498313946,-252.71947202074372,2.305917364794163,20.75981641106875,14.763281941973698,-5.809205867414691,253.19762070838337,26.221646494921565
359,15.114216610277964,-252.80196180316636,2.2466082952766517,20.885752044800164,14.662684879551918,-5.84462007925859,253.27988106225249,26.278269337675727
360,15.139110193127157,-252.88487063682905,2.1904221615124597,21.123760604047394,14.567323665964002,-5.87559969026083,253.3624654067856,26.43423027088194
361,15.160924748294923,-252.96688518087987,2.137176329736694,21.48280681947877,14.480883936340012,-5.9040843760375585,253.44405551264146,26.6999401010728
362,15.179502505191412,-253.0466535466496,2.0866823824661447,21.970907607556555,14.407045681374306,-5.932264041299574,253.5232965125934,27.085046015167016
363,15.194755347389185,-253.12282212441974,2.0387640459606806,22.594949267320303,14.349411309967119,-5.962498727051147,253.59883409309217,27.598211950306414
364,15.206666484847647,-253.19407041935645,1.9932721866969876,23.360496333817476,14.311432332075395,-5.9972221991127865,253.66934961160013,28.246887274167715
365,15.215289709578737,-253.25914079846774,1.9500959683982781,24.271591775054464,14.29633612483973,-6.038833140466552,253.73359002145486,29.0370653202676
366,15.220746155894398,-253.31686092911937,1.9091698059771858,25.330548445678293,14.307054195985627,-6.089578651208807,253.79039037236416,29.97303366456019
367,15.223218561429622,-253.36615794193926,1.8704761434627077,26.53773261082309,14.346153378427125,-6.151435190354303,253.83868791210713,31.057118870492793
368,15.222943116286604,-253.40606471374406,1.8340443893180074,27.891342103062783,14.415771481910692,-6.225992181993275,253.87752818296292,32.28942995601955
369,15.22019912701905,-253.43571993713917,1.7999466754881945,29.387184270056576,14.517559074084357,-6.314343268012813,253.90606478575788,33.66760707019179
370,15.215296900638291,-253.4543646340645,1.7682914269115706,31.01846209778519,14.652629216702644,-6.416989699840188,253.92355548592633,35.186584635175606
371,15.208564426850545,-253.461338296989,1.7392158865655905,32.77558037834703,14.821517067485619,-6.533759775898706,253.92935787211337,36.83838117918362
372,15.200333562662408,-253.4560777909139,1.7128786585221192,34.6459870465797,15.024151213079083,-6.66374768491441,253.92292773308398,38.61193081548137
373,15.190926478216074,-253.43812155362343,1.6894530777128038,36.61406728618152,15.259838401389409,-6.805274647054316,253.90382272429642,40.492973307132466
374,15.180643111459032,-253.4071206817574,1.6691219216928004,38.66110916929802,15.52726298732489,-6.955874819068743,253.87171294382372,42.464020403057646
375,15.169750315950242,-253.36285742761012,1.6520737221974278,40.76535903678735,15.824501876262632,-7.112308007249919,253.826398970936,44.50441526099815
376,15.15847326543666,-253.30527057398734,1.638500705786451,42.90218235496829,16.149055023061106,-7.2706007789760525,253.76783685700707,46.59049910704387
377,15.146989529217587,-253.2344860890565,1.6285981672417653,45.04434144535974,16.49789066044727,-7.426116980157007,253.69616848578667,48.69589487478048
378,15.135426115910889,-253.1508504300956,1.6225648819517553,47.16239554691335,16.867503530467538,-7.573657800243304,253.6117546822683,50.79191170944776
379,15.123859660549067,-253.05496303858547,1.6206040725225865,49.2252215816201,17.253983653786026,-7.707590322219092,253.51520761907094,52.84806738236258
380,15.112319673072742,-252.94770414402282,1.6229245031488857,51.20064631244636,17.653092704542193,-7.82200205327667,253.4074186342638,54.8327183874138
381,15.100794379766656,-252.8302540824928,1.629741406403228,53.05617291254352,18.060344892539604,-7.910877398164012,253.2895776459779,56.71378033584783
382,15.089238354088863,-252.7041009225743,1.641277011248943,54.75977791827858,18.47108937763488,-7.9682905324229845,253.16318091906507,58.459514764396246
383,15.077580996884105,-252.57103411374445,1.6577603734164639,56.28074871549409,18.880591607357392,-7.988607813728647,253.03002485345004,60.03935315534852
384,15.06573497196234,-252.43312291449288,1.6794260655976174,57.590527642009604,19.28411149975658,-7.966691926204528,252.89218450670342,61.42472531788442
385,15.053603824022323,-252.2926793577291,1.706511178314931,58.66352684558734,19.676977011172475,-7.8980994857688165,252.7519765692858,62.5898576359333
386,15.041088120975648,-252.15220637578688,1.7392500993467659,59.477878354577435,20.054652271425308,-7.779263805962786,252.611907382004,63.512507180405755
387,15.028089573395265,-252.0143324418473,1.7778666842552422,60.016086342603415,20.412800065170337,-7.607654867635403,252.4746073268901,64.17460025987357
388,15.01451276227116,-251.8817348231187,1.8225636287968643,60.26555309775721,20.74733889736489,-7.381909276792432,252.342753672837,64.56274845303622
389,15.000264427679406,-251.7570543993245,1.8735090286888332,60.21895640182885,21.05449514361936,-7.101924209000478,252.21898483569217,64.66862121186476
390,14.98525071636967,-251.64280589254665,1.930820271534415,59.8744634093668,21.33085086860507,-6.76891100771452,252.10580993309733,64.48916129592294
391,14.969373205699325,-251.54128804034627,1.9945456313693748,59.23577411795492,21.57338785644812,-6.385406042630478,252.00551822814228,64.02663703600123
392,14.952524728078252,-251.45449854914693,2.064644248078941,58.311995562408846,21.77952826995158,-5.955238375564482,251.92009337725395,63.28853314173559
393,14.934585930492872,-251.38405859354614,2.1409654591248466,57.11735545120742,21.94717212277765,-5.483455523121914,251.85113732447846,62.2872889505041
394,14.915423185748125,-251.33115122864984,2.2232286012667215,55.670770711961666,22.074731365910665,-4.976210083132535,251.79980826853432,61.039899274478636
395,14.894888088037336,-251.2964773255297,2.3110044643942134,53.99529203404303,22.16115985025363,-4.440611244643546,251.766776349851,59.567398066197946
396,14.87281847759996,-251.28023152790263,2.4036996912587596,52.117449760568825,22.20597783293391,-3.8845462772189543,251.75219957642133,57.89424881339871
397,14.84904083775667,-251.28209941556364,2.500545597061089,50.06652922267583,22.209289235274007,-3.31647796991936,251.7557211892838,56.047667801967116
398,14.823373984155424,-251.30127575396344,2.6005929968594934,47.87380477113326,22.171789682791978,-2.7452245853807837,251.77648836594068,54.05690716025216
399,14.795634122527076,-251.33650255011472,2.7027145259385286,45.57176143910262,22.094763474374485,-2.1797291893585817,251.81319100652047,51.95252404115905
400,14.765641445444324,-251.3861246925211,2.805615577088832,43.193331583236436,21.980067955757814,-1.6288253008756686,251.86411840412538,49.76566062984198
401,14.73322836958978,-251.44816023218192,2.907854419518277,40.77117125413275,21.83010422698928,-1.1010058004385515,251.92723086717572,47.52735713895811
402,14.698249283580353,-251.5203818021197,3.0078713969589717,38.33699766219764,21.64777365826427,-0.6042019804420624,252.00024277762947,45.26791680261103
403,14.660591367142422,-251.60040522130387,3.104026413575031,35.92100509881107,21.436420324876153,-0.14557949130771183,252.08071308737877,43.01633829604029
404,14.620185772508703,-251.68578103593907,3.1946432891702914,33.55137219197337,21.19976020219295,0.26864233662707715,252.16613893361156,40.79982715713
405,14.577018329304307,-251.77408473441957,3.2780590443925113,31.253868594640032,20.941798766307272,0.6333418095985047,252.25404801561157,38.64339383891195
406,14.5311389694113,-251.86300166190665,3.3526757291443525,29.051564336828502,20.66673948286598,0.9446116362324168,252.34208565150664,36.56954215930228
407,14.482669178084144,-251.95040313284713,3.4170119949688456,26.9646403457531,20.378886463945083,1.1998370995395329,252.42809289552844,34.59804828766357
408,14.431806814287304,-252.03441072941766,3.4697512927910914,25.010294283886914,20.082545217955055,1.39773305026828,252.51017257208667,32.745827120013466
409,14.378827547510868,-252.11344622377473,3.5097834803395243,23.202732133804155,19.78192577415039,1.5383388021098066,252.5867405146371,31.02688003176888
410,14.32408208131746,-252.18626507631808,3.5362369022432047,21.553233139334456,19.481052436219244,1.6229717672661927,252.6565598048151,29.452315671188856
411,14.267988578267747,-252.25197223864845,3.5484988362291534,20.070273980740733,19.183684011993066,1.6541424274253207,252.71875661882183,28.03043379029165
412,14.211020410307906,-252.31002014007709,3.5462235809033067,18.759697461204137,18.89324766420053,1.6354348921203796,252.77281753011923,26.766861179678838
413,14.15369024251782,-252.36019012234487,3.5293289662566183,17.624911457177554,18.612788635107268,1.5713587115205012,252.81856961842183,25.66472859218781
414,14.096532004739014,-252.4025598782027,3.4979831062022133,16.66710532760014,18.344937107283723,1.4671786028995426,252.85614610460482,24.724878064361185
415,14.040082309450376,-252.43746034945028,3.4525835690582514,15.885473192315786,18.091892465158185,1.3287291933903425,252.88594114762165,23.94609116092598
416,13.98486257409783,-252.46542593541272,3.3937310121968145,15.277436172880217,17.855424307699124,1.1622218137349898,252.9085578124046,23.325330179327132
417,13.93136282291019,-252.48714181980142,3.3221989770203364,14.838858485382222,17.636888775024868,0.9740499787792802,252.924753145457,22.857986005127874
418,13.880027975597455,-252.50339188954962,3.238901172595689,14.564254874677422,17.43725807459396,0.7705996357644477,252.93538393718995,22.5381278590307
419,13.831247280824321,-252.51501017869506,3.1448573342485187,14.446989059332772,17.25716051752287,0.5580696138564648,252.9413561890867,22.358751459929834
420,13.785347296890444,-252.52283801889917,3.0411586748856805,14.479464475245297,17.096927943517375,0.34230694447238974,252.94358052876134,22.31202308559709
421,13.742588443807866,-252.52768817105087,2.9289340285309997,14.653309582324278,16.95664715701666,0.12866083084455715,252.9429348814727,22.38951762849069
422,13.703164765428197,-252.53031633562657,2.8093179571596196,14.959560303842345,16.83621189866537,-0.07814190692053563,252.94023480413682,22.582449007808123
423,13.66720629515897,-252.53139977585073,2.683422210232769,15.388841853536547,16.735371910236548,-0.274097990226155,252.93621120620537,22.88189124343966
424,13.634783379293282,-252.5315224107839,2.552311799230998,15.93155141973661,16.65377584261667,-0.45600432067639873,252.93149479633146,23.27898824639008
425,13.605912429800567,-252.5311656228481,2.416986521294406,16.57804208792374,16.591005175997083,-0.6215096774674914,252.92660647987083,23.76515010055635
426,13.580562721358586,-252.53070408117716,2.2783682324128756,17.31880709210329,16.54659701897583,-0.7691416872782755,252.92195299033528,24.332233406058293
427,13.55866387727898,-252.53040598994897,2.137293813508531,18.144662065630666,16.52005457441459,-0.8983098638340873,252.91782714376856,24.972703119514996
428,13.540113570625572,-252.53043726073236,1.9945136574962592,19.046921572586342,16.510845044318042,-1.009286049167359,252.91441218716855,25.67977321329163
429,13.524784812260421,-252.5308691712591,1.8506954378524305,20.017565064290743,16.51838564385925,-1.1031640822453797,252.9117897653242,26.447523387890868
430,13.512532190922684,-252.53168912029145,1.7064327328443905,21.049386686615247,16.542019176982024,-1.1818009765425155,252.90995107382375,27.27098909426529
431,13.503196672021348,-252.53281410465223,1.5622578121282664,22.13612311403112,16.58098135523165,-1.2477422746670945,252.90881079135465,28.146222362407833
432,13.496608956152029,-252.5341064769445,1.4186576476150978,23.27255378269295,16.634362741997574,-1.3041345012093744,252.90822333503667,29.070321428976523
433,13.492591733744394,-252.5353913776462,1.2760920387978119,24.454568493544112,16.701068802206553,-1.3546277150854578,252.90800083408163,30.041427866768377
434,13.490961318030822,-252.53647507749972,1.1350126914144683,25.679198331111248,16.77978192657189,-1.4032710914886768,252.9079320668224,31.058690791773763
435,13.491529112738059,-252.53716343750241,0.9958821853459511,26.944607180602336,16.868929407827864,-1.4544042942556457,252.90780157681797,32.12219874312776
436,13.494103253463116,-252.53727978546394,0.8591919333207895,28.2500427662594,16.966661134741322,-1.5125471751590787,252.90740826983975,33.23288096070666
437,13.498490628174187,-252.53668163466415,0.7254783437729787,29.595747931987724,17.07084023168534,-1.5822900903360846,252.90658291277774,34.39238091990341
438,13.50449937740792,-252.53527579932017,0.5953364423158785,30.982834643568708,17.179049043965858,-1.6681868872463494,252.9052040777121,35.60290598305744
439,13.511941872666698,-252.53303159791216,0.4694302510775571,32.41312474289055,17.28861181284531,-1.7746524004701758,252.90321220329312,36.86705778087364
440,13.520638006735311,-252.5299919688201,0.34849930062001394,33.8889627557447,17.39663416682921,-1.9058660839147517,252.90062156810325,38.18764841295361
441,13.530418408811258,-252.52628244461056,0.23336071445246687,35.41300706272116,17.50005825884346,-2.065683169746586,252.89753007877985,39.56750780232276
442,13.541127046445977,-252.52211800663963,0.12490637165113806,36.98800652030862,17.59573110698469,-2.257554456910884,252.8941268417523,41.00928762211706
443,13.55262274785871,-252.51780776471662,0.02409480550380552,38.616570158823734,17.680482572780303,-2.48445550443464,252.8906974159765,42.51526717065771
444,13.564779476149383,-252.51375711879777,-0.06806224736192855,40.30093785767615,17.7512085611003,-2.748825701229332,252.88762637820932,44.087166426846906
445,13.57748550335322,-252.51046671140182,-0.1505184760020842,42.04275989146851,17.80495456217714,-3.052517495744459,252.88539650979274,45.72597130425832
446,13.59064176220077,-252.50852731365524,-0.22221642039583253,43.84289294663257,17.83899465366173,-3.3967560543247615,252.88458376280133,47.43177586725079
447,13.604159631895696,-252.50860987672485,-0.2821150407087705,45.70121963416347,17.85090153453202,-3.782109770852487,252.88584725550132,49.203645976868096
448,13.617958405795594,-252.51145022807728,-0.32922036782134495,47.61649770612905,17.83860397517317,-4.208472300909374,252.88991379602288,51.0395084783642
449,13.631962727219936,-252.51782821577126,-0.3626177134598862,49.58624419484815,17.80042910260494,-4.675057026601399,252.89755675964997,52.93606961546104
450,13.646100270339785,-252.5285414797489,-0.38150359169914944,51.606658638923726,17.735128092094786,-5.180404972951369,252.90956952122482,54.88876589154877
451,13.660299855177783,-252.5443744472346,-0.3852154551008751,53.672588543285094,17.64188505706796,-5.7224071590058365,252.92673405920667,56.891750157096496
452,13.67449010295299,-252.56606357054474,-0.3732576302036309,55.77753926272537,17.520310183125144,-6.2983421892916,252.94978576725805,58.937915286988606
453,13.688598741218772,-252.59426012930263,-0.34532236382382736,57.913729496185404,17.370419347136753,-6.9049295693918555,252.97937581626346,61.01895728883315
454,13.702552745637174,-252.62949196377886,-0.30130547332127894,60.072192367928324,17.192603441066858,-7.538398720863917,253.01603246154204,63.12547884038136
455,13.716279572889304,-252.67212530906525,-0.24131654787941792,62.24292050853693,16.987591239682786,-8.19457295013136,253.0601224985018,65.24713290660655
456,13.729709711772832,-252.7223276811174,-0.1656838708652551,64.4150515322838,16.756409852974294,-8.868966742595035,253.11181384999284,67.37280412927424
457,13.742780617274754,-252.78003272902814,-0.07495421669297382,66.57708782359619,16.500346605827563,-9.556893801628018,253.17104022182895,69.49082312358408
458,13.7554418159944,-252.84490808560625,0.03011246136759317,68.71714175826966,16.220915648241352,-10.253582298908954,253.23746886373186,71.58920584915698
459,13.767660679428696,-252.91632737053217,0.1485534680732865,70.82319476727321,15.919831792561412,-10.954292908444733,253.31047257761023,73.65590724398105
460,13.779428204559721,-252.9933476331094,0.2792187337770924,72.88335652024442,15.598993072897684,-11.654434503506398,253.38910723791733,75.67907586976487
461,13.790764204404137,-253.07469382558097,0.4207905912422349,74.88610950769797,15.260472404544362,-12.349672080997733,253.47209639435331,77.64729499749397
462,13.801721528607287,-253.1587523793705,0.5718072325540683,76.82052483541679,14.906517573111683,-13.036021592640525,253.55782501719204,79.54979578682693
463,13.812389138155543,-253.24357631724743,0.7306890888065991,78.6764372022386,14.539557679995507,-13.709926815438758,253.64434481269137,81.37663008289708
464,13.822893913584466,-253.32690423377863,0.8957673954666484,80.44457055981974,14.16221319814272,-14.368314117589344,253.7293934333072,83.11879363573108
465,13.833400993131363,-253.40619486297194,1.0653141781630433,82.11661032971608,13.777306088882618,-15.008622000023115,253.81042928462506,84.76829476607679
466,13.844112364908163,-253.47867802648673,1.237572854808762,83.68522261000781,13.387866148349744,-15.628803643355996,253.88468269716324,86.31816803598012
467,13.855263519693604,-253.5414216828655,1.4107886652170427,85.14402488700954,12.997129938235023,-16.227302309370057,253.94922315895897,87.76243669832445
468,13.867118220185192,-253.59141361391394,1.5832381902147799,86.4875159258211,12.608529228738005,-16.80300120252845,254.00104113088295,89.09603112370375
469,13.87996174516141,-253.6256550446979,1.753257246667947,87.7109745940311,12.225666732562432,-17.355151096903235,254.03714174099403,90.31467283242175
470,13.89409317129011,-253.6412623572712,1.9192664432637927,88.81033847769578,11.852277970053713,-17.88328049184692,254.05464652698276,91.41473524230258
471,13.909817244825113,-253.63557221877403,2.079793680464794,89.78207350870093,11.492179311301726,-18.387094189573812,254.05089855313966,92.39309297120796
472,13.927436124258152,-253.6062450259667,2.2334928093199853,90.62304567227844,11.149203475551975,-18.866366980328625,254.02356579078705,93.24697170965302
473,13.947240795747618,-253.5513615661735,2.3791574521366834,91.33040536257887,10.82712488512755,-19.320839546508516,253.9707376171607,93.97381042692253
474,13.969501465214563,-253.46950816002115,2.5157287893985387,91.90149416849248,10.52957815480207,-19.75012368253047,253.89100962199723,94.5711470247001
475,13.994456002269938,-253.35984632895622,2.642296322360133,92.33378279189759,10.259973599011,-20.153623415299684,253.78355268156722,95.03653748029947
476,14.022295755497273,-253.22216425409633,2.758091470420045,92.62484737527149,10.021413950544272,-20.53047761892613,253.6481635169286,95.36751698446223
477,14.053148720786774,-253.05690874527724,2.8624750785166064,92.77238970266356,9.816616487303172,-20.879528347503687,253.4852954705884,95.56160955646146
478,14.087060851188816,-252.86519775040776,2.954920887887362,92.77430456073279,9.64784441973156,-21.199317495985415,253.29606961452964,95.61639015887937
479,14.12397695864096,-252.64881441550108,3.034997409633885,92.62879511602017,9.516850693176428,-21.488112657247346,253.08226732829297,95.52960056728958
480,14.16372300606533,-252.4101843668064,3.102350522546169,92.33453464441217,9.42483638786987,-21.74396128503922,252.846306163717,95.29931736621405
481,14.205991596605847,-252.1523382252027,3.156688726964789,91.89087048263931,9.372424817055823,-21.964770649560343,252.5912011450672,94.92416762749734
482,14.250332241510034,-251.8788613391192,3.197772495879545,91.2980637173375,9.359651400139473,-22.148409732882257,252.32051360898075,94.40358518094442
483,14.296147691649821,-251.59383238156707,3.22540868358707,90.5575558605641,9.385968523392842,-22.292828189203465,252.03828932381086,93.73809790108176
484,14.3426973136652,-251.30175195769115,3.2394504946583984,89.67225156537488,9.450263915087856,-22.396186699397468,251.74898710444864,92.92963407532143
485,14.389108098353592,-251.00746191142846,3.2398030218215275,88.64680438032553,9.55089054171722,-22.456992393630205,251.45739865178984,91.98183373704629
486,14.434393323063949,-250.71605576512067,3.226433840035324,87.48789076721062,9.685705683092023,-22.474232516895093,251.16856005297785,90.90034898460782
487,14.477478203973183,-250.43278076530206,3.1993876800502634,86.20445626718366,9.852116684436359,-22.44749925401908,250.88765537315552,89.69311593669659
488,14.517231231374708,-250.1629323586246,3.1588038282424984,84.8079169535489,10.04713090049516,-22.37709867988902,250.61991307719373,88.37058026291523
489,14.55249943613633,-249.91174250671384,3.1049345773357864,83.31229932330427,10.267407503077917,-22.264137190851056,250.37049657171366,86.9458583436728
490,14.582145641731989,-249.68426391640168,3.0381628031786896,81.73430271672335,10.509309106664782,-22.11057954124262,250.14439080696005,85.43481722247765
491,14.605085771884076,-249.48525286786995,2.9590166991937714,80.09327034184275,10.76895158702573,-21.91927379320927,249.94628748184397,83.85605875077509
492,14.620324452730058,-249.31905376558254,2.8681800161799478,78.41105808680896,11.04225100282675,-21.693940070639293,249.7804718519799,82.23079674864434
493,14.626987441323482,-249.18948874964792,2.766496809291964,76.71179450068382,11.324967107221232,-21.439121888657773,249.65071438134112,80.58262055220435
494,14.624349800383998,-249.0997556810867,2.6549704467172366,75.02153044386458,11.612743476744745,-21.160100860248665,249.56017048871288,78.93714377983898
495,14.61185917938935,-249.05233760756897,2.534757234317184,73.36778262967044,11.901144740625286,-20.862777602907723,249.51129146715152,77.32154316744779
496,14.589154005695558,-249.04892651004027,2.4071553644989017,71.77898116169162,12.185691737724088,-20.553523544628053,249.5057493775742,75.76399844048204
497,14.556076780679808,-249.09036380442996,2.273590015748795,70.28383673865389,12.461895626320695,-20.239009973675447,249.54437841322024,74.29304992309346
498,14.512682950657865,-249.17659974250063,2.1355953284915183,68.91064801904695,12.725291982232465,-19.92602202729077,249.62713491346506,72.93689549901868
499,14.459245919412277,-249.3066734443846,1.9947937223871066,67.6865734045999,12.971475734263276,-19.62126627582373,249.7530777934916,71.72265231649101
500,14.396258658499068,-249.47871471996265,1.8528727541870955,66.636894032803,13.196137464511558,-19.331181017490476,249.92037056828363,70.67561107763066
501,14.324432086344556,-249.68996813339564,1.7115596315003327,65.78429594651436,13.395101259631915,-19.061758296549108,250.1263054257216,69.81851176419819
502,14.244690021091472,-249.9368390860732,1.5725936950513955,65.14819916418254,13.564364035269042,-18.818386014263265,250.3673491018957,69.17086918594272
503,14.158160185185187,-250.21496116459184,1.4376976024071784,64.74415974019131,13.700136095151622,-18.60571735725635,250.63920976479562,68.74837484809649
504,14.066160580433516,-250.5192836154633,1.3085484164252656,64.58336805646682,13.798882595593573,-18.427573147294982,250.93692371909964,68.56239849618535
505,13.970180667010137,-250.84417745989583,1.186750130262944,64.67226281871112,13.857365516142918,-18.28688068768374,251.25496040247492,68.6196086019339
506,13.87185715826156,-251.1835583266572,1.073809181949161,65.01227587542994,13.872685640080212,-18.18565041433055,251.58734372935865,68.92172635069207
507,13.772944699306551,-251.53102346330624,0.9711141221869315,65.59971829244658,13.842323894237529,-18.1249894063594,251.92778724865747,69.46542267450313
508,13.67528199336505,-251.87999957778112,0.8799199001140954,66.42581322484482,13.764181207384388,-18.10514881680638,252.26983979796586,70.24236272626258
509,13.580754012203387,-252.22389732661574,0.8013365737241613,67.4768760887107,13.63661588971213,-18.125600692156194,252.6070375164695,71.2393970126715
510,13.491250943195768,-252.55626770225985,0.7363219373941403,68.73463745704981,13.458477477436215,-18.18513848693856,252.93305752478676,72.43889332128211
511,13.408624688589228,-252.87095550526146,0.6856775331559533,70.17669919824465,13.229136050640996,-18.281994821035294,253.24186852527316,73.81919878501435
512,13.33464407598622,-253.16224547271298,0.6500475116513257,71.77710988446404,12.94850620760832,-18.41396963705258,253.52787397892737,75.3552171389952
513,13.270950311510441,-253.42499718426689,0.6299197386472946,73.50704161519789,12.617065120147037,-18.57856184430636,253.7860440820388,77.01908259411852
514,13.219014412430361,-253.65476528515782,0.6256285280320051,75.33554724845214,12.235864322119468,-18.773097755415503,254.01203319276343,78.78090886590824
515,13.180098304780264,-253.847901773161,0.6373585053155738,77.23037466020371,11.806535013500493,-18.994850151151287,254.2022795614557,80.60958979394623
516,13.155221023821234,-254.00163723728215,0.6651492817479912,79.15881304410162,11.331286669863117,-19.241142665371925,254.3540843451274,82.47362665246102
517,13.145131139681604,-254.11413820763707,0.7089007364761825,81.08854535390608,10.812898693775995,-19.509435319971672,254.4656671393902,84.34195662755803
518,13.150286248831138,-254.18453829654464,0.76837875678449,82.98848071762941,10.254704816462333,-19.79738837494094,254.53619576411876,86.18475695584054
519,13.170840172348052,-254.21294160116307,0.8432213258181308,84.82954101057386,9.660569981954746,-20.102903109944595,254.5657888154653,87.97419986571872
520,13.206638380516008,-254.20039785219072,0.932944884941078,86.58537685319736,9.034859480100852,-20.424139647222194,254.55549050096243,89.6851348012391
521,13.25722205580061,-254.14884995809788,1.0369509089302422,88.2329902422825,8.3824000874699,-20.759513360005933,254.50721843004678,91.29567654974107
522,13.321841015814096,-254.06105582841047,1.1545326209823397,89.75324393933094,7.70843293833799,-21.107672646074324,254.42368625307986,92.7876809168301
523,13.399475388751318,-253.94048755014896,1.2848817867806854,91.13124164520949,7.018557874325112,-21.467461760993395,254.30830421268797,94.14709349866727
524,13.48886550302381,-253.791212000656,1.4270955923976487,92.35656779206155,6.318669199184349,-21.83787296311555,254.1650616560095,95.36416181059039
525,13.588549028304042,-253.61775770436867,1.5801837168943527,93.42338127296365,5.614883098738771,-22.21799245683705,253.99839625712826,96.43350635414015
526,13.696904070043768,-253.42497313658916,1.7430758417420773,94.33036329843725,4.913457428535316,-22.606944565337834,253.8130550755505,97.3540518487552
527,13.812196654214903,-253.2178817399229,1.914629984967016,95.0805254550577,4.220705073389986,-23.00383820724528,253.61395262394197,98.12882546283441
528,13.932630792084566,-253.00153869769377,2.093642152257936,95.68088957548397,3.5429025678441683,-23.407719073148296,253.40603088264683,98.76463408226194
529,14.056399144277345,-252.78089411828284,2.278857772210128,96.14205587190027,2.886196038909421,-23.81752995578643,253.19412579739418,99.27163712589682
530,14.181732344329307,-252.56066682785539,2.468985195303822,96.47767965177532,2.256506750225559,-24.23208065388092,252.98284433980461,99.66283490926179
531,14.306945328605968,-252.3452324414207,2.662711241765524,96.70387960394548,1.6594386293247967,-24.650027955886433,252.7764556950308,99.95349489813223
532,14.430479438044118,-252.13852872236626,2.8587184882644396,96.83860197513228,1.100190200374521,-25.069865556600607,252.5787995006332,100.16053928342421
533,14.550939453339414,-251.9439804517031,3.0557037808018213,96.90096495043625,0.5834733245296138,-25.4899233923536,252.39321329126886,100.30191716037955
534,14.66712498351001,-251.76444516321155,3.2523973610909236,96.91060638201344,0.11344103083522793,-25.90837573880661,252.22248045174126,100.39598337398411
535,14.778055715838377,-251.60218019316287,3.447581943328795,96.88705597469287,-0.30637351701683874,-26.32325738171825,252.06879907806402,100.46090406468208
536,14.882990036025987,-251.45883060498173,3.640111086966574,96.84915040967559,-0.6731051928849398,-26.732487110797788,251.9337712590875,100.51410634947071
537,14.981436565712695,-251.3354368111444,3.828926352105264,96.81450683898022,-0.9845908227485034,-27.133897635165905,251.81841155855463,100.57178655505133
538,15.07315828011202,-251.23246020819184,4.013072968131785,96.79906685014413,-1.2393877392044033,-27.52527082815981,251.72317298203222,100.64848812896962
539,15.158169008826453,-251.14982478168073,4.191713921497178,96.8167195678235,-1.436776178252957,-27.904377071894356,251.64798836569773,100.7567569962848
540,15.236722256246514,-251.0869722897761,4.364142349510936,96.87900923975542,-1.5767451369260386,-28.269017416780446,251.59232478527483,100.9068789177582
541,15.309292475831622,-251.04292831177565,4.5297919871652566,96.99492963095247,-1.6599618878588036,-28.617067252498504,251.55524827405796,101.10670050257528
542,15.376549287245417,-251.01637628054723,4.6882453184047295,97.17080494652141,-1.6877260259530356,-28.946520149638943,251.53549599581416,101.3615330348256
543,15.439325575921531,-251.0057366276032,4.839239060440075,97.4102548659352,-1.6619096005528573,-29.255530471133074,251.5315530589505,101.67413622669267
544,15.498580764814431,-251.00924823128668,4.982666558925628,97.71423954433183,-1.584885522143907,-29.542453323700816,251.54173124332695,102.04477737254739
545,15.55536070140984,-251.02504938291537,5.118576583802768,98.08117899869029,-1.4594470378117927,-29.805880486918824,251.56424694519418,102.47136004967597
546,15.610755657143637,-251.05125551038384,5.247167991625543,98.5071400577809,-1.288721619606962,-30.044671141358137,251.59729567461486,102.94961541050935
547,15.66585800471151,-251.08603099575026,5.3687797806450686,98.98608300783202,-1.0760830082840769,-30.25797648249713,251.63912054263815,103.4733482173886
548,15.721721193200572,-251.12765263453207,5.483876149338117,99.51015924051667,-0.8250652897545736,-30.445257610501873,251.68807239144832,104.0347290966371
549,15.77932155292908,-251.17456264198302,5.593026311108736,100.07005059212774,-0.539282682815289,-30.606296414157033,251.74265957567198,104.62462401666387
550,15.83952413471781,-251.2254095998103,5.696879127722807,100.65534058854334,-0.22235817918676287,-30.741199501434433,251.80158587894135,105.23295165990459
551,15.903053278092912,-251.27907626108535,5.796133108653338,101.2549074295857,0.12213662478086852,-30.850395508239856,251.86377555594532,105.84905909558715
552,15.970468133102758,-251.33469364618463,5.89150288671894,101.85732824513542,0.49072909313054186,-30.93462629306459,251.92838499166456,106.46210594205424
553,16.042143154133576,-251.3916414591236,5.983683858165921,102.45128391343273,0.8800800190172005,-30.99493263190315,251.99480106799749,107.06144702287969
554,16.118253677199483,-251.44953558892584,6.073317191643664,103.02595352388342,1.287005341380616,-31.032635134957687,252.062627081168,107.6370033659183
555,16.198766933337527,-251.50820418046874,6.16095767573582,103.57138742097588,1.7084862053015306,-31.049311222429512,252.13165779352948,108.17961129851791
556,16.28343904280234,-251.567654213994,6.247046734287428,104.07884776833454,2.141669146261491,-31.046769058272297,252.2018456650242,108.68133941929283
557,16.37181857905237,-251.62803064209203,6.3318924483917485,104.54110581527439,2.583858777854965,-31.02701929524029,252.27326040709488,109.13576345019702
558,16.463257223253912,-251.6895700618835,6.41565774205344,104.95268562332264,3.032505796390783,-30.992245332969862,252.34604390536816,109.53818947854062
559,16.556927902079572,-251.75255088788413,6.498357120523211,105.3100450306323,3.4851932801066368,-30.944772549851407,252.42036251241822,109.885817000474
560,16.6518505786013,-251.81724215800187,6.579861596824811,105.61168621922539,3.9396240905898345,-30.887036637414855,252.49635883908172,110.1778345923821
561,16.74692548345971,-251.88385338760318,6.659910872856826,105.8581904508598,4.393611698079483,-30.821550759588376,252.57410540884914,110.4154430162848
562,16.84097304780747,-251.9524880780784,6.7381315998836175,106.05217423644903,4.845076058527736,-30.75087086652897,252.65356268330987,110.60180302341887
563,16.932779231550672,-252.02310334049633,6.814060597305184,106.19816714139168,5.292045417184714,-30.677558252451007,252.73454377668918,110.74190784421153
564,17.02114443716757,-252.0954774727787,6.887172070412713,106.30241432631712,5.732664206319422,-30.604138464391866,252.81668751680644,110.84238310349691
565,17.104933815301358,-252.16918632828282,6.956907976078019,106.37260956708894,6.165206556870549,-30.533055966192276,252.89944047529522,110.9112194791988
566,17.183126502329806,-252.24358827846703,7.0227107098039525,106.41756674218286,6.588094326807791,-30.466624499875035,252.98204752428248,110.95744568035808
567,17.254861155082956,-252.31781690798445,7.08405724535631,106.44683955037921,6.999917992391274,-30.40697379396385,253.0635497837467,110.99075117444876
568,17.319475035645468,-252.39078049700254,7.140493719469965,106.47030057759733,7.399458343000192,-30.3559940333021,253.14278871060594,111.02106956748725
569,17.37653385878361,-252.4611677864231,7.191669181875337,106.49769194150191,7.7857067187930005,-30.31528017223105,253.21841549260333,111.05813475962616
570,17.42584980993512,-252.52746028073688,7.237366895773358,106.53816083772243,8.15788152201585,-30.28607859811274,253.2889056638085,111.11102314756411
571,17.467485927033135,-252.5879521350967,7.277531407164705,106.5997945716194,8.515438912559645,-30.26923877968215,253.35257971876396,111.18769638366054
572,17.50174656743365,-252.6407791745738,7.312289813931285,106.68917111471386,8.85807598417552,-30.26517241147353,253.40763117411743,111.29456057654019
573,17.529155435060854,-252.68395859504426,7.341966139984582,106.81094273555523,9.185725293911199,-30.27382227174746,253.45216374249262,111.43605921815336
574,17.550423782012405,-252.71544040570888,7.367088087226245,106.96747153674944,9.498540319862359,-30.29464260163348,253.48423894492012,111.61431828619203
575,17.566411621401677,-252.73317080698303,7.38838554156483,107.1585363679811,9.796872178652324,-30.326592334620045,253.5019346644502,111.82886250759702
576,17.578084481016138,-252.73516653387713,7.406780255354701,107.38113008957153,10.081238676100778,-30.368142025553247,253.50341395763533,112.07642122206954
577,17.586467883088638,-252.7195978318797,7.423366369427947,107.62936413690385,10.352287403682185,-30.417294896798538,253.48700204954318,112.35084028149107
578,17.59260156243403,-252.6848763802255,7.439381917703716,107.89449365597461,10.610755023260772,-30.47162201999952,253.45126807589182,112.64311282755025
579,17.59749538235915,-252.62974336221757,7.45617204655404,108.1650712825505,10.857425027662796,-30.528311230879133,253.3951070220468,112.94153671763124
580,17.602088810390754,-252.55335211140434,7.475145224691453,108.42723118782357,11.093086131594058,-30.58422890919349,253.3178165340803,113.23200006862625
581,17.607215548635445,-252.4553394012917,7.497724151715331,108.66509766554766,11.318493136888556,-30.635993274472956,253.2191628966536,113.49838921584058
582,17.61357447734608,-252.33587964035019,7.525293408033339,108.86130480802557,11.53433175938747,-30.68005739144639,253.09943063197142,113.72310585660743
583,17.621707553826962,-252.19571713808065,7.559146119459195,108.9976063986856,11.741188568158506,-30.712799672765595,252.95945103411455,113.88767293010412
584,17.63198482859597,-252.03617323113136,7.600432003169216,109.05554878307814,11.939526863659305,-30.730619334761712,252.80060653016133,113.9734025883339
585,17.644596414335183,-251.8591271983853,7.650109147443305,109.01717484587486,12.129669006354925,-30.73003403700874,252.62480986010283,113.96209509260926
586,17.65955111140917,-251.6669721727922,7.7089018230532975,108.86572482355244,12.311785435769567,-30.707776840505023,252.43445931890167,113.83673511963312
587,17.676681354447208,-251.46254925183482,7.777266503429014,108.58629977167527,12.485890417495147,-30.660889647738166,252.2323732758337,113.58215202794834
588,17.69565405563045,-251.2490644261932,7.855367975124635,108.16645604810796,12.651844403477499,-30.586810413969253,252.02170857539957,113.18561308352623
589,17.715986751647808,-251.02999371727367,7.943066905337698,107.59670387375844,12.809362759718283,-30.4834516098721,251.8058681577758,112.63732318232115
590,17.737068282618072,-250.8089821179198,8.039919585749624,106.87088938201087,12.958030508449042,-30.349267648333242,251.58840340104172,111.9308107452713
591,17.758183116928297,-250.58974167434172,8.145189945753208,105.98644689293846,13.097322654872803,-30.183309251285213,251.37291639885953,111.06318654625596
592,17.778538429428103,-250.37595342859746,8.257873422684906,104.9445156968572,13.226629582168831,-29.98526302567441,251.16296674928017,110.0352695365502
593,17.797293129505984,-250.17117706196981,8.376731848743642,103.74992273928721,13.345286849912783,-29.75547485924578,250.96198654296043,108.85158060825374
594,17.8135881199266,-249.97877105581532,8.500338041290151,102.41103883473654,13.452608509034542,-29.494956161398264,250.77320620681525,107.52021128339459
595,17.826577023304775,-249.80182516444614,8.627128244446943,100.93952119189522,13.547922766258408,-29.2053724707197,250.5995928186944,106.05257932998678
596,17.835456432205877,-249.6431061283578,8.755460143693558,99.34995899358597,13.630608514090467,-28.88901451871357,250.44380161884652,104.46308718473747
597,17.839494561531897,-249.50501690118102,8.88367408736017,97.65944144281771,13.700130942900282,-28.548752453598357,250.3081407773886,102.7687017144086
598,17.83805716060408,-249.3895691434375,9.010155371332758,95.88706903077654,13.756074257651726,-28.18797455459961,250.19454896644953,100.98847525093693
599,17.830629685775325,-249.29836827710204,9.133395639134866,94.05342892457065,13.798169502639238,-27.810512373899314,250.1045848464342,99.1430281095622
600,17.81683491007945,-249.23261002717882,9.252051335668655,92.18005456163083,13.826315674097861,-27.420554791657576,250.03942721940678,97.25401217880223
601,17.796445248690556,-249.19308713652353,9.364996848531456,90.28888802750917,13.8405926762222,-27.022553895968553,249.99988436375494,95.34357388449152
602,17.769389192267802,-249.18020476513811,9.471369878410716,88.40176176777827,13.84126524570998,-26.621125845587155,249.98641090224595,93.43383303727377
603,17.735751586115985,-249.19400290139058,9.570606946564254,86.53991379212061,13.828777659114214,-26.220949925783383,249.99913042207,91.54639190121257
604,17.695768148909668,-249.23418396067288,9.662467634631787,84.7235479241592,13.803739686382528,-25.82666887724494,250.03786200067947,89.70188639376171
605,17.649815347131206,-249.300143709897,9.747046838237265,82.97144797479478,13.766904722424146,-25.442793274884284,250.10214884609434,87.91958875677511
606,17.5983971751469,-249.39100372109493,9.824774814994287,81.30065207004135,13.719141294940036,-25.07361231491288,250.19128738694357,86.21706843281626
607,17.542130408888877,-249.50564367309283,9.89640514279363,79.72619080515044,13.661399285155984,-24.72311295338662,250.30435528622226,84.60991534373997
608,17.481729645590338,-249.64273202846599,9.962990957769675,78.26089046450825,13.59467228972566,-24.394909016686764,250.44023706006374,83.11152737604564
609,17.41799310648496,-249.8007539630135,10.025850051054821,76.91524030612378,13.519957633704664,-24.092181664354154,250.59764632437228,81.7329616934672
610,17.351789868876043,-249.9780358280441,10.086519620372043,75.69732096749728,13.438215612865887,-23.817632354210247,250.77514408885168,80.48284759986379
611,17.284048958869622,-250.17276577728953,10.146701791599813,74.61278949737212,13.350329590699571,-23.573449155337606,250.97115287242127,79.36735712447319
612,17.21575060878369,-250.38301054074168,10.2082014631926,73.66491537394302,13.25706861343419,-23.36128681650027,251.18396677945344,78.39022829897664
613,17.147919916450846,-250.60672874291294,10.272858447191371,72.85466111094246,13.159054238349885,-23.182260434202117,251.41175810989412,77.55283522217321
614,17.081622983682923,-250.84178153859673,10.342476152806798,72.1808006579254,13.056733240336404,-23.03695196105544,251.6525814586258,76.85429845915769
615,17.01796523204129,-251.0859415229102,10.41874924122401,71.6400687427308,12.950357678700689,-22.925428262386017,251.90437643267126,76.29162908911111
616,16.958091028329722,-251.33690085696216,10.50319292004111,71.22733454807808,12.839973443298303,-22.847269053786672,252.16497007971745,75.85989978709122
617,16.903183146894527,-251.59227945449877,10.59707679139425,70.93579364190548,12.725417940428958,-22.80160287535048,252.4320800024596,75.5524367080127
618,16.854460122496093,-251.84963402951547,10.701366167291368,70.75717287118273,12.606327155819873,-22.787149258223568,252.70331905988112,75.36102662967015
619,16.813169387711746,-252.10646886997856,10.81667338259282,70.68194390852055,12.482152016676638,-22.80226533271783,252.97620259374904,75.27613472406487
620,16.78057438976213,-252.3602493185292,10.943220996978072,70.69954216079329,12.352183737887257,-22.84499521380011,253.2481592223409,75.28712928744473
621,16.757934620831374,-252.60841897029948,11.08081809504701,70.7985886139422,12.215587593826784,-22.913120534855324,253.51654628490107,75.38251055900449
622,16.746478413455623,-252.84842143551677,11.228850308876531,70.96711274125308,12.071444248257446,-23.00421053145686,253.77867088134957,75.55014125360636
623,16.747369132067924,-253.07772715768394,11.386283781251278,71.19277479630286,11.918797421661568,-23.115670185173112,254.03181710918764,75.77747660841518
624,16.761665927004593,-253.29386532362327,11.551683096070379,71.46308569567276,11.756706361165007,-23.244785145269322,254.27327964332727,76.0517916625352
625,16.7902806030764,-253.49446045765282,11.723243144556603,71.76562235771317,11.584301374713837,-23.388762411659314,254.50040334656023,76.360403232683
626,16.833932460592695,-253.67727287641168,11.89883476054864,72.08823589235817,11.400840602685697,-23.544766066727764,254.7106281535338,76.69088369651162
627,16.893103167279,-253.84024176204656,12.076063572682022,72.41924951772684,11.2057661783315,-23.709947721735478,254.90153799987226,77.03126333145818
628,16.967993827515745,-253.98152923133796,12.252340946086099,72.74764259819912,10.998757926840721,-23.88147180794979,255.07091211525216,77.3702176580883
629,17.058486546119305,-254.09956351922364,12.424965323734067,73.06321685985004,10.779782756108048,-24.056536326007574,255.21677666267533,77.6972360758429
630,17.1641130305261,-254.19307922102087,12.591211757269145,73.35674075699282,10.549137904547454,-24.23239007059268,255.33745445858435,78.0027681318921
631,17.28403305250154,-254.26115232043085,12.748426683811424,73.62006822596547,10.307486245670416,-24.406347617786267,255.4316102153818,78.27834409813501
632,17.417025673264078,-254.30322752089066,12.894123842960221,73.84622869048464,10.055881937973025,-24.57580348819456,255.4982884629302,78.51666716970354
633,17.561495874197004,-254.31913547843084,13.026075969503776,74.02948611070275,9.795784891673042,-24.73824685821426,255.53694134788512,78.71167547908917
634,17.715498661822693,-254.30909805679033,13.142396387997032,74.16536596950301,9.529062812623005,-24.89127796068965,255.54744406881363,78.8585731198062
635,17.876781875234347,-254.2737205847701,13.24160533646516,74.25065024007772,9.257979958750262,-25.032626926340527,255.53009664839567,78.95383038144645
636,18.042847661800206,-254.2139712571755,13.32267721768256,74.28334148308296,8.985172172441743,-25.160175348367208,255.4856119497617,78.99515434269449
637,18.211030713021653,-254.13114928066682,13.385066198562905,74.26259820850139,8.713608187876089,-25.271980376345994,255.41509125277275,78.98143179809568
638,18.378589141646845,-254.02684473074927,13.428708648083495,74.1886444696975,8.446537623904275,-25.366300721345144,255.3199899735674,78.91264718668778
639,18.542802149229146,-253.90289372954481,13.454002552302711,74.06265733449094,8.187426488690983,-25.44162364092104,255.202076733465,78.78977876734972
640,18.70106797759033,-253.7613321994153,13.461766515042061,73.88663640948445,7.939881498410452,-25.496691781318432,255.06338875226263,78.61467676690319
641,18.850995824774888,-253.60435034492122,13.45318323154109,73.66325998879758,7.707565046798038,-25.530528627362298,254.9061856288432,78.38992760455224
642,18.99048590199769,-253.43424880297138,13.429733121489852,73.39573269265814,7.494103188756049,-25.542461210537724,254.73290248959577,78.11870858489144
643,19.117792618425117,-253.25339681867433,13.393123157607388,73.08762971403121,7.302989466404863,-25.532138702355308,254.54610296196702,77.80463771710741
644,19.231567403488786,-253.06419307086412,13.345214973544348,72.7427430123849,7.137487796748418,-25.499545632335053,254.34843278050187,77.45162358781562
645,19.33087991926162,-252.86903028295689,13.28795568397607,72.36493488711695,7.000537928684725,-25.4450086830134,254.14257549467243,77.06372038693692
646,19.41521874912074,-252.67026477772873,13.223314109899386,71.95800419104164,6.894667093091863,-25.369196233387015,253.93121191650442,76.64499309466149
647,19.48447433168019,-252.47019156979775,13.153223973572212,71.52556994386286,6.821911345947814,-25.273110005369684,253.71698443782387,76.19939740625186
648,19.538907657253954,-252.2710248331865,13.079534452997184,71.07097632000176,6.783749731369299,-25.158068357271667,253.502466551413,75.7306782561764
649,19.579108270735595,-252.07488300945036,13.003967763415787,70.5972220049463,6.781053820295103,-25.025681017783985,253.29013725808358,75.24228991222742
650,19.605944823824824,-251.8837775933542,12.92808336150231,70.1069158122999,6.814054482191327,-24.877815369883226,253.08235974458518,74.73733962046802
651,19.620511111521708,-251.6996047102185,12.85324875462256,69.60225926465979,6.882326981471801,-24.716554745717794,252.8813637536301,74.21855571970667
652,19.624070337430645,-251.52413881520692,12.780617296601578,69.08505560621113,6.984794716620031,-24.54414954818734,252.68923125230776,73.68828004016623
653,19.61800019219888,-251.35902801637764,12.711113439881046,68.55674354093007,7.119751206098501,-24.36296236577613,252.5078851307415,73.14848335653217
654,19.60374102473885,-251.20579054538413,12.64542575227895,68.01845303112367,7.284899312290281,-24.175408607359547,252.3390806176726,72.60080183061581
655,19.582748848581804,-251.06581178591208,12.584007824089122,67.47107985233774,7.47740616253003,-23.98389453460625,252.18439890638854,72.0465918441922
656,19.556454239366722,-250.94034113479282,12.52708700342221,66.91537528288288,7.693971731187047,-23.790754847697173,252.04524226655423,71.487000364032
657,19.526227561111092,-250.83048796199452,12.474680516472691,66.35204722387759,7.930908607650151,-23.59819214598202,251.92282982926878,70.92304790792042
658,19.493350607377906,-250.7372161504928,12.426617935785556,65.78186906427467,8.18423018378827,-23.408220654543243,251.81819338230167,70.35572118113237
659,19.458994667179347,-250.66133709804012,12.38256843172443,65.20579258552658,8.44974442036911,-23.222616580483816,251.7321728736402,69.7860724049865
660,19.42420504983601,-250.6035014695173,12.34207106119534,64.62506107780372,8.723150464012132,-23.042877277941198,251.665411713563,69.21532218112618
661,19.389892073535663,-250.56419023018205,12.304566546951282,64.04131865806775,9.000135578351316,-22.87019099786095,251.6183522094191,68.64496243952098
662,19.356828417968543,-250.54370555023434,12.269429374323845,63.45671160709574,9.276470029306047,-22.705418400101994,251.5912315360108,68.07685566593202
663,19.325652571592222,-250.5421621256299,12.235999285631227,62.87397738722432,9.54809770690496,-22.54908632034043,251.58407859950123,67.51332623827767
664,19.296877821911117,-250.55947936849014,12.203611257913781,62.29651686526654,9.811220420580593,-22.40139363256127,251.59671204268707,66.9572393655057
665,19.27090579835902,-250.59537483474432,12.17162296049383,61.72844521293065,10.062373993423474,-22.262228487489256,251.62873952042327,66.41206290154227
666,19.248043047761026,-250.6493592212841,12.139438702971109,61.17461709474914,10.298494462520363,-22.131195726421264,251.6795583077805,65.88190728974163
667,19.22851875589496,-250.7207332507788,12.106529017198826,60.64062215070352,10.5169728364992,-22.00765283020069,251.74835728616043,65.37153912982737
668,19.212501842435636,-250.80858668728803,12.072445210733404,60.1327474734251,10.715697023830591,-21.890752354019188,251.8341203251935,64.88636438914315
669,19.200116268661727,-250.91179959035586,12.03682852084342,59.65790480693363,10.893079821910048,-21.77948848199858,251.9356310374575,64.4323781735078
670,19.19145412537501,-251.02904584069313,11.999413966930925,59.223521568841825,11.048072273567998,-21.67274521998661,252.05147891382882,64.01607928092398
671,19.186586531544364,-251.15879903280785,11.960029615967619,58.83739643800524,11.180162197597033,-21.56934387210554,252.18006699040077,63.64434941061845
672,19.185572535612746,-251.2993409463519,11.918592552287086,58.5075219621502,11.289358230048434,-21.468087722622172,252.31962136239,63.32429867273467
673,19.188466249407973,-251.44877288008485,11.875103143372773,58.24187819606195,11.376160270970432,-21.36780214246929,252.46820295509335,63.06308068696285
674,19.195322446095854,-251.6050301652974,11.829639092671865,58.04820261347973,11.441517811928337,-21.267368639900084,252.6237219947817,62.86768191026045
675,19.206200758306576,-251.76590017200755,11.782350321172974,57.93374238398506,11.486778150543502,-21.16575174964078,252.78395559456047,62.744690849366854
676,19.22116841605865,-251.9290440375074,11.73345511654092,57.90499558991091,11.513626864219006,-21.06201814639172,252.94656874662178,62.70005350412579
677,19.240301309171144,-252.09202220609595,11.683237466778515,57.96744814626296,11.524023052332668,-20.955347936486383,253.10913883716387,62.73882178944448
678,19.263683152918876,-252.25232376277694,11.632045174622117,58.12531319908566,11.520131794482513,-20.845038643551728,253.269183678323,62.864901883322155
679,19.291402625712877,-252.40739952803403,11.58028818126456,58.381279804371125,11.504256082602824,-20.730502881048412,253.4241930324785,63.08080960518738
680,19.32354846727301,-252.55469895323293,11.52843643316255,58.73627797823944,11.478770231168856,-20.61126103554289,253.5716636780519,63.38744026296227
681,19.360202720628905,-252.691710972673,11.477016605571992,59.18926797163338,11.446056529047205,-20.486930427853355,253.7091381929727,63.78386111643791
682,19.401432596231245,-252.81600903563773,11.426607064654718,59.73706287236097,11.408446755111827,-20.357212367315697,253.8342477226707,64.26713571467428
683,19.447281706205036,-252.92530044272564,11.377830555188432,60.37419509776411,11.368170153796026,-20.221878308626774,253.94475892480767,64.83219063572194
684,19.497761508061,-253.0174797466319,11.331344203361551,61.09283852414358,11.327309448043017,-20.080756034900276,254.03862493003476,65.47173613802975
685,19.5528436935887,-253.09068530367108,11.28782655751815,61.88279835894,11.287766293542395,-19.933716497250963,254.11403948162084,66.17625241127534
686,19.61245405119865,-253.1433571570121,11.247961587490954,62.73157992506187,11.251237164738395,-19.78066168656674,254.16949250339167,66.9340520499717
687,19.676468102301435,-253.17429352515305,11.212419805560485,63.624545001833525,11.219200050667801,-19.62151372130746,254.203824429608,67.73142681433107
688,19.744708600948258,-253.18270249850474,11.181836930269363,64.54516023574917,11.192911639380618,-19.45620524367451,254.21627595213195,68.55288271395203
689,19.81694479508016,-253.16824519076656,11.156790779822899,65.47533667081048,11.173414002317118,-19.28467126875693,254.20652947690692,69.38146224754571
690,19.892893156520007,-253.13106651645506,11.137777338530597,66.3958531494282,11.161549246234305,-19.10684279421075,254.1747384976022,70.1991467173393
691,19.972219068630704,-253.07181000748986,11.125187136028519,67.28684982647688,11.157980224111057,-18.922642617076317,254.12154132093855,70.98732543801084
692,20.05453874763593,-252.99161377799297,11.119283146788215,68.12837201482114,11.16321518288409,-18.731983796692568,254.04805625285212,71.72731296640337
693,20.13942058663583,-252.89208599122728,11.120181344305568,68.90093974232869,11.177634145898212,-18.534771035956286,253.95585657982892,72.40089083663834
694,20.226385254946223,-252.7752598797562,11.127834931170408,69.58611535392271,11.201514859650645,-18.330904981288786,253.8469253723878,72.99084729541431
695,20.314904222966444,-252.64353023173956,11.142023260704821,70.16704063880839,11.235056282061873,-18.1202891111723,253.7235920146208,73.48148761296646
696,20.404396767511482,-252.49957494755452,11.162346602357129,70.62891644473774,11.278397880755291,-17.90283854059709,253.58845408040642,73.85908887095992
697,20.494225816899924,-252.34626653677955,11.188228052465185,70.95940142762596,11.331633457443747,-17.678489782922867,253.44428946350604,74.11227661090822
698,20.583693199169325,-252.18657910164643,11.218923882609706,71.14891207414034,11.394818766395941,-17.447210360548468,253.29396435356867,74.23230600061744
699,20.67203505570197,-252.0234963712691,11.253543335306992,71.19081279733022,11.467972734137534,-17.20900720428749,253.14034267066953,74.21323663525496
700,20.75841844953487,-251.85992579236873,11.29107826453457,71.081492007746,11.551072498492998,-16.963933025144886,252.98620201389053,74.05199700819934
701,20.84194039423763,-251.69862275049542,11.330442090701284,70.82032693795556,11.644042724341046,-16.712090191139204,252.8341602361665,73.74834139340292
702,20.921630409826868,-251.54212789052653,11.370516434233657,70.40954614697779,11.746739755573572,-16.453631992538753,252.68661560947325,73.30470787345594
703,20.99645727866792,-251.39271933673183,11.41020275773784,69.85400369822537,11.858931190210285,-16.188761488340887,252.54570230820866,72.72599118107532
704,21.065340233609103,-251.25238044445814,11.448475610782625,69.1608827324426,11.980271482408517,-15.917728396120912,252.41326171045958,72.01924765673388
705,21.12716461108013,-251.12278264682197,11.484433731672363,68.33934840181404,12.110274270255328,-15.64082472198595,252.29082892107277,71.19335183988295
706,21.180801955245496,-251.00528208613284,11.5173453345262,67.40017090709087,12.24828240849765,-15.358380022404283,252.17963304859273,70.2586250396395
707,21.225134378897724,-250.9009280414833,11.546684385895826,66.35533885177264,12.393437188433673,-15.07075731957529,252.08060909934542,69.22645583637394
708,21.259082529139196,-250.81048065565872,11.572155460795932,65.21768153853452,12.54464884957328,-14.77835072373997,251.99441884583123,68.10893105721355
709,21.28163591941592,-250.73443517971077,11.593705691989,64.00051641938842,12.70057103924832,-14.481585739830258,251.92147773973764,66.91849353518425
710,21.291883940679316,-250.6730499407473,11.611523224880196,62.71733487387004,12.859582215817166,-14.180923049775705,251.86198493331912,65.66764006725892
711,21.28904569521101,-250.62637544430166,11.626022376386915,61.38153602436222,13.019777090833998,-13.876866236658701,251.81595370013395,64.36866960377705
712,21.272496899062766,-250.5942823624324,11.63781640192859,60.006214626215716,13.17897109279271,-13.569973441277146,251.78323992458652,63.03348804335796
713,21.241792433238523,-250.576486590336,11.647679500240178,58.60400541237027,13.334720503719899,-13.26087239075905,251.76356682068766,61.67347229825388
714,21.196683625087466,-250.57257005903955,11.65650042353902,57.18698278949908,13.48436030857504,-12.950277739238988,251.7565446201852,60.299392706058555
715,21.137129849908373,-250.5819965597822,11.665230630805002,55.76661159679159,13.625060841012933,-12.639009292991194,251.7616846056182,58.92138951715863
716,21.063304384015368,-250.60412243948596,11.674830141542264,54.353741892464825,13.753903015405365,-12.328009466691697,251.77840750271946,57.54899622427975
717,20.975594609441465,-250.6382025755485,11.686214106759552,52.95863858447533,13.867970421763244,-12.018358216788764,251.8060467978009,56.191200088858935
718,20.87459682548437,-250.6833924326797,11.700202773839973,51.59103528688886,13.964455013694055,-11.711283705157982,251.84384793210097,54.85652849863503
719,20.761106171824178,-250.7387472308322,11.717477170901343,50.26020111348586,14.040771718326116,-11.408167042378945,251.89096455103518,53.55314883921068
720,20.63610245985884,-250.80321936704186,11.738542538627325,48.97500920841244,14.094676178165566,-11.110539641998514,251.94645310564388,52.28896939998728
721,20.5007329409169,-250.87565531021934,11.763701222089175,47.743996612319634,14.124379097849902,-10.82007202421881,252.00926717906736,51.071729449068
722,20.356293155231405,-250.95479330635806,11.793036312535248,46.57540651123814,14.128650368836103,-10.53855338711088,252.0782530138394,49.90906797305708
723,20.20420693503826,-251.03926340318327,11.826406757114478,45.47720593152692,14.106906297042766,-10.267861886195007,252.15214785112747,48.80856261348338
724,20.04600629633074,-251.12759138914703,11.863453924307946,44.45707435894101,14.059273879460454,-10.009926204760081,252.2295827172939,47.777732873240645
725,19.883311425575563,-251.21820805640345,11.903618783355375,43.522361321798755,13.986627196741829,-9.766679538597277,252.30909103090264,46.82400447404367
726,19.717810540461535,-251.30946472671653,11.94616807582185,42.68001347705026,13.890592597047002,-9.540007538830702,252.3891238681825,45.95463462460581
727,19.551239311434987,-251.39965540664681,11.990227270930909,41.9364740796404,13.773521341097654,-9.331692092354723,252.46807212207133,45.17660080680097
728,19.385359715300943,-251.48704543756634,12.034817772732495,41.29755986032976,13.638430582034221,-9.143353076530166,252.54429528974697,44.496458417679996
729,19.221938425588903,-251.56990609978328,12.078895822265102,40.768322251583264,13.488915723728477,-8.976390391845792,252.61615623306696,43.920175105631294
730,19.06272499821167,-251.6465542680523,12.121390838730697,40.352901566839385,13.329039056262081,-8.831928688223885,252.68206091852417,43.452951799066845
731,18.909430216487277,-251.715395885167,12.161241558023834,40.05438409194612,13.163200885406264,-8.710767297784157,252.740501849916,43.09904211525258
732,18.76370505927025,-251.77497172664974,12.197429127984943,39.874672886279505,12.996000079750283,-8.613337929352278,252.79010366272885,42.861582835260855
733,18.627120816448052,-251.82400365532098,12.22900700447816,39.81438312531656,12.832091099629176,-8.539672584790425,252.8296691186647,42.742448172707384
734,18.50115087080815,-251.86143931205447,12.255127755267608,39.872771853592084,12.676044227982766,-8.489383908621138,252.85822350334973,42.74213949760034
735,18.387154630332365,-251.88649299799408,12.275066698585714,40.04771006052236,12.532214980807328,-8.461659833588916,252.87505522869708,42.85972004467979
736,18.28636404516773,-251.8986804023675,12.288241912691749,40.33570218417071,12.40462764040623,-8.455273956400626,252.87975031568254,43.09280110730121
737,18.199873018046254,-251.8978448491643,12.294229803528648,40.73195471893835,12.296876668297127,-8.468612516951145,252.87221842469293,43.437582538303516
738,18.128629760306485,-251.8841729502695,12.292775303156374,41.23049188057284,12.212048557751984,-8.499718094820786,252.8527082906392,43.888946384713364
739,18.07343179318477,-251.858198021174,12.283795991391234,41.82431265659214,12.152665552060704,-8.546349167433492,252.8218108734967,44.44059856110402
740,18.034922948216597,-251.82079031046496,12.267379912964238,42.50558041076519,12.120651577758542,-8.606053566574666,252.78044922593074,45.085249977271474
741,18.013591482060118,-251.77313393239424,12.243777406469354,43.26583383545509,12.11731972525907,-8.676252778586871,252.72985492218743,45.81482580969489
742,18.009768363618168,-251.7166912672549,12.213387683743388,44.09620671899547,12.143379731001204,-8.75433314471775,252.67153177848763,46.62068994608537
743,18.023624944328343,-251.6531563805724,12.176741116506037,44.98764385051008,12.198963276376839,-8.83773944523748,252.60720839777832,47.49387121186938
744,18.05516953405514,-251.58439961187182,12.134478278899175,45.931101355130544,12.283664556369587,-8.924066089193747,252.5387816941375,48.425278753763465
745,18.10424277306787,-251.5124058772245,12.087326912783027,46.91772161157609,12.396593434681627,-9.011141147651156,252.46825397485202,49.405895676701604
746,18.170512043823837,-251.4392094451519,12.03607813861349,47.938975355830046,12.536438482679484,-9.097098798718855,252.3976664051192,50.42694240722665
747,18.25346547454722,-251.36682800598473,11.981563242354571,48.98676631651299,12.701537185738598,-9.180436455889856,252.32903176359525,51.480003987032475
748,18.352406332996125,-251.29719876531087,11.924632040383566,50.05349650875968,12.88995054933901,-9.260053875967287,252.26426931092715,52.557118326146885
749,18.466448788275095,-251.2321190700882,11.86613319097979,51.13209298068804,13.099539298429196,-9.335272709171715,252.20514435606535,53.65082519484725
750,18.594516117307197,-251.1731937747945,11.806896188958827,52.215999273102604,13.328038928681265,-9.40583608115486,252.15321478349802,54.75417830644751
751,18.735342414973385,-251.12179121557133,11.747714536179812,53.29913703070951,13.573131088244251,-9.47188880447323,252.10978645592527,55.8607251497753
752,18.88747871522895,-251.07900925521332,11.689329828956035,54.37584497853223,13.832509124450208,-9.533939695071032,252.07587900822526,56.96446115728068
753,19.049304161177286,-251.04565234378873,11.632416935341219,55.44080372504843,14.10393607396838,-9.592808211627117,252.05220303821693,58.059766213384265
754,19.219042506702422,-251.02221993143908,11.577570674334936,56.48895545830796,14.385293872065438,-9.649558223234509,252.03914908230124,59.141332298675394
755,19.394783861161102,-251.00890596149168,11.525294391958314,57.51542749242299,14.674623088884276,-9.705422111514814,252.03678812999428,60.20409115389077
756,19.57451131094948,-251.0056086382997,11.47599075285234,58.51546781194197,14.970153058176306,-9.761718603294,252.04488287337767,61.243150240328596
757,19.756131905108823,-251.01194921795238,11.429955100759512,59.48439935808892,15.270322824466666,-9.819767741398666,252.0629084304478,62.25374407274556
758,19.93751138674566,-251.02729821048905,11.387371886220578,60.41759797625271,15.573793841409962,-9.880806317134075,252.0900809186533,63.23120636927908
759,20.116511906210768,-251.05080718087166,11.34831476693279,61.310496889082565,15.879455728966665,-9.945906969225872,252.12539204518055,64.17096657034732
760,20.291031798087836,-251.0814444200454,11.312750882183934,62.15861845033588,16.18642657134796,-10.015903989979716,252.16764794552364,65.06857227281549
761,20.459046392904053,-251.11803314107237,11.280549467272829,62.957631910985214,16.494049168395964,-10.091328619463622,252.21551085871374,65.91973712180275
762,20.618648755880237,-251.15929131151793,11.25149458221832,63.7034340898304,16.80188434768894,-10.172356223615154,252.26754265701942,66.72041179319783
763,20.76808919986985,-251.2038724513772,11.225301455209792,64.39224828355316,17.109701984701644,-10.258767258540411,252.32224944794908,67.46687400324176
764,20.90581244487888,-251.25040663550976,11.201635777995552,65.02073560594289,17.41746988834228,-10.349923351552807,252.37812636907148,68.15583216011677
765,21.030491378428607,-251.2975407799899,11.180135127586414,65.58611233436226,17.725340300664886,-10.4447591866154,252.4337015336938,68.78453647377873
766,21.14105643020574,-251.34397730557555,11.160431492728659,66.08626679805283,18.033633510370887,-10.541790155533228,252.48757809192807,69.35089111656892
767,21.23671956318012,-251.38851042797117,11.142173743298518,66.51986977704978,18.342818026595143,-10.63913492903449,252.53847351724423,69.8535613017985
768,21.31699184867295,-251.4300594080694,11.12504891878543,66.88647310284999,18.653486881764035,-10.734551256308755,252.58525530849653,70.29206973978162
769,21.381693642579457,-251.46769797760564,11.10880146287507,67.18659195941983,18.966329866622633,-10.825482516493945,252.6269721948413,70.66687764356479
770,21.430956601727022,-251.50067892813036,11.093249888156809,67.42176715567325,19.28210178776567,-10.909111971946242,252.66287973948363,70.97944618084142
771,21.465217159552285,-251.5284527471297,11.078300649810235,67.59460437056559,19.601587146880618,-10.982421446317508,252.692459180512,71.23227500843912
772,21.485201499482272,-251.55067938808006,11.063959140707166,67.70878810933898,19.92556195757887,-11.042251303729035,252.71542859077113,71.4289153318917
773,21.49190242385266,-251.56723274023565,11.050337724722853,67.76906888477876,20.25475372606236,-11.085359072748881,252.73174594622586,71.57395582392684
774,21.486548834841212,-251.5781978734254,11.037660711750672,67.78122291432223,20.5898008880367,-11.108474743192017,252.74160422636214,71.6729806562848
775,21.47056885524714,-251.5838614041318,11.026266204098254,67.75198430636524,20.931213150079312,-11.108351551159242,252.7454189687689,71.73249972346534
776,21.445547851221473,-251.58469530183214,11.01660476224065,67.68895021433785,21.279334174441104,-11.081811814663086,252.74380869511793,71.75985174657245
777,21.41318271198799,-251.5813343312407,11.0092348126793,67.60045977616431,21.63430785535158,-11.025787972802362,252.73756851108453,71.76308132440457
